time,ax,ay,az,gx,gy,gz,sw420
23:58:03:034,²ax,ay,az,gx,gy,gz,sw420
23:58:03:037,-268,-320,14900,-171,75,-158,0
23:58:03:039,-184,-360,15068,-155,54,-111,0
23:58:03:040,-112,-432,15076,-140,87,-117,0
23:58:03:045,-200,-344,14912,-141,64,-113,0
23:58:03:046,-204,-284,14916,-141,69,-118,0
23:58:03:047,-96,-408,15200,-174,38,-131,0
23:58:03:048,-204,-332,15124,-153,68,-113,0
23:58:03:052,-224,-384,14876,-154,53,-139,0
23:58:03:205,-188,-376,15016,-131,116,-111,0
23:58:03:456,-136,-344,15164,-145,69,-119,0
23:58:03:708,-108,-308,14960,-169,66,-146,0
23:58:03:960,-184,-360,14976,-170,66,-112,0
23:58:04:213,-132,-436,14976,-158,78,-139,0
23:58:04:465,-128,-324,15032,-157,59,-105,0
23:58:04:718,-216,-388,14960,-118,69,-114,0
23:58:04:970,-156,-376,14928,-164,48,-122,0
23:58:05:222,-168,-320,15028,-176,60,-111,0
23:58:05:474,-312,-368,14968,-153,69,-116,0
23:58:05:726,-80,-292,14968,-147,59,-119,0
23:58:05:980,-232,-420,15020,-161,67,-129,0
23:58:06:231,-152,-372,15040,-142,65,-132,0
23:58:06:484,-248,-508,14936,-162,50,-114,0
23:58:06:736,-248,-372,14956,-152,67,-106,0
23:58:06:988,-172,-404,14948,-181,45,-114,0
23:58:07:241,-268,-352,14904,-151,39,-123,0
23:58:07:493,-208,-296,14996,-170,37,-134,0
23:58:07:745,-280,-488,15084,-189,53,-133,0
23:58:07:998,-204,-276,14964,-169,55,-156,0
23:58:08:250,-140,-364,14912,-168,56,-137,0
23:58:08:502,-204,-340,14928,-145,62,-123,0
23:58:08:755,-228,-288,15016,-154,74,-107,0
23:58:09:008,-196,-324,14976,-167,48,-138,0
23:58:09:259,-168,-428,15008,-149,73,-120,0
23:58:09:512,-212,-368,14980,-140,50,-139,0
23:58:09:764,-292,-380,15088,-169,66,-117,0
23:58:10:016,-176,-344,14972,-156,67,-116,0
23:58:10:269,-176,-408,15244,-164,104,-136,0
23:58:10:520,-212,-228,14956,-148,58,-92,0
23:58:10:773,-164,-320,15012,-167,60,-112,0
23:58:11:026,-236,-332,14976,-170,89,-126,0
23:58:11:278,-152,-336,15024,-171,84,-125,0
23:58:11:530,-184,-372,15052,-149,32,-140,0
23:58:11:782,-148,-272,15036,-175,68,-123,0
23:58:12:035,-208,-392,14948,-169,70,-116,0
23:58:12:287,-216,-440,15004,-136,67,-122,0
23:58:12:540,-156,-424,15108,-156,86,-144,0
23:58:12:792,-188,-304,14968,-171,69,-110,0
23:58:13:047,-168,-344,14908,-172,79,-122,0
23:58:13:297,-164,-224,14992,-149,102,-121,0
23:58:13:549,-152,-268,14980,-156,55,-116,0
23:58:13:801,-168,-328,14988,-153,47,-127,0
23:58:14:053,-212,-328,15020,-149,68,-113,0
23:58:14:306,-248,-284,15084,-167,88,-118,0
23:58:14:557,-196,-316,14944,-133,72,-99,0
23:58:14:810,-196,-336,15000,-162,41,-130,0
23:58:15:062,-224,-252,14900,-140,44,-96,0
23:58:15:316,-268,-380,14980,-151,59,-150,0
23:58:15:568,-172,-332,14924,-152,48,-126,0
23:58:15:820,-176,-420,14972,-153,45,-142,0
23:58:16:072,-172,-300,14976,-160,52,-134,0
23:58:16:324,-140,-320,15096,-169,66,-124,0
23:58:16:577,-112,-296,15068,-163,53,-134,0
23:58:16:829,-280,-376,15068,-157,64,-113,0
23:58:17:081,-160,-348,15160,-152,75,-137,0
23:58:17:334,-220,-360,14912,-158,95,-123,0
23:58:17:586,-104,-468,15004,-148,71,-108,0
23:58:17:838,-264,-308,15012,-164,63,-121,0
23:58:18:091,-208,-392,14840,-167,62,-118,0
23:58:18:343,-160,-412,15020,-140,79,-150,0
23:58:18:595,-232,-404,14972,-163,72,-135,0
23:58:18:846,-172,-332,14980,-139,45,-96,0
23:58:19:100,-176,-348,14948,-172,88,-126,0
23:58:19:352,-184,-272,14856,-165,45,-107,0
23:58:19:604,-100,-352,14756,-174,64,-106,0
23:58:19:857,-188,-280,14996,-165,58,-124,0
23:58:20:109,-188,-360,14960,-136,72,-118,0
23:58:20:362,-276,-428,15016,-146,69,-122,0
23:58:20:614,-288,-316,14892,-136,62,-127,0
23:58:20:866,-256,-324,14960,-141,79,-106,0
23:58:21:119,-164,-420,14992,-186,84,-126,0
23:58:21:371,-224,-296,14860,-154,75,-105,0
23:58:21:623,-248,-328,15000,-159,39,-104,0
23:58:21:875,-184,-312,15056,-158,60,-106,0
23:58:22:128,-260,-332,15028,-130,59,-110,0
23:58:22:380,-220,-412,15036,-152,83,-108,0
23:58:22:632,-212,-292,15008,-163,72,-112,0
23:58:22:885,-200,-292,15036,-163,66,-132,0
23:58:23:137,-160,-344,14964,-149,71,-117,0
23:58:23:388,-160,-368,15032,-165,59,-83,0
23:58:23:642,-124,-340,14840,-177,66,-127,0
23:58:23:894,-196,-436,14888,-153,55,-119,0
23:58:24:146,-136,-340,14992,-143,58,-141,0
23:58:24:399,-188,-344,15156,-146,79,-115,0
23:58:24:651,-216,-376,14928,-144,70,-101,0
23:58:24:904,-212,-388,15048,-157,45,-117,0
23:58:25:156,-152,-356,15004,-163,54,-110,0
23:58:25:408,-200,-320,15024,-167,71,-110,0
23:58:25:660,-216,-316,14964,-164,65,-110,0
23:58:25:913,-152,-344,15000,-144,85,-121,0
23:58:26:165,-272,-432,14944,-145,52,-130,0
23:58:26:417,-320,-284,15044,-155,48,-124,0
23:58:26:670,-220,-368,14960,-170,51,-106,0
23:58:26:922,-108,-352,14900,-146,64,-108,0
23:58:27:174,-160,-332,14996,-165,53,-130,0
23:58:27:427,-124,-328,14984,-150,78,-103,0
23:58:27:679,-164,-212,14984,-161,81,-145,0
23:58:27:931,-292,-368,15004,-180,51,-148,0
23:58:28:184,-144,-360,14864,-157,66,-131,0
23:58:28:435,-80,-456,15068,-166,65,-100,0
23:58:28:688,-232,-364,14996,-167,72,-109,0
23:58:28:941,-232,-348,14932,-162,72,-125,0
23:58:29:194,-224,-392,14888,-164,76,-122,0
23:58:29:446,-160,-348,15064,-156,119,-107,0
23:58:29:704,-204,-324,15024,-170,37,-129,0
23:58:29:950,-172,-480,15088,-168,63,-119,0
23:58:30:202,-168,-380,15188,-162,61,-116,0
23:58:30:454,-264,-296,14992,-165,55,-134,0
23:58:30:707,-148,-336,14900,-135,78,-118,0
23:58:30:959,-204,-224,14944,-127,68,-105,0
23:58:31:212,-248,-328,15124,-168,40,-143,0
23:58:31:464,-156,-444,15028,-161,51,-121,0
23:58:31:716,-244,-216,14932,-146,49,-142,0
23:58:31:969,-104,-360,15136,-156,50,-116,0
23:58:32:221,-192,-476,14816,-179,81,-114,0
23:58:32:474,-188,-360,15068,-144,103,-116,0
23:58:32:725,-80,-392,14888,-153,57,-118,0
23:58:32:978,-268,-288,15008,-177,57,-115,0
23:58:33:229,-96,-412,15084,-174,59,-113,0
23:58:33:483,-104,-312,14892,-155,60,-124,0
23:58:33:735,-212,-288,14868,-153,58,-132,0
23:58:33:988,-268,-348,14804,-165,81,-123,0
23:58:34:240,-252,-368,14936,-164,41,-137,0
23:58:34:492,-196,-356,14960,-151,66,-136,0
23:58:34:745,-152,-332,15080,-181,55,-135,0
23:58:34:997,-204,-392,15188,-151,65,-105,0
23:58:35:248,-72,-384,14956,-152,67,-106,0
23:58:35:502,-160,-288,14996,-154,68,-134,0
23:58:35:754,-228,-356,15012,-157,41,-126,0
23:58:36:006,-196,-356,15088,-161,67,-137,0
23:58:36:258,-240,-412,14896,-156,66,-98,0
23:58:36:511,-176,-508,14988,-160,57,-143,0
23:58:36:764,-172,-384,14908,-146,76,-114,0
23:58:37:015,-184,-292,15004,-158,54,-120,0
23:58:37:268,-200,-312,15000,-150,79,-132,0
23:58:37:520,-180,-432,14996,-151,59,-119,0
23:58:37:772,-192,-204,15136,-159,62,-134,0
23:58:38:025,-100,-364,14972,-155,59,-140,0
23:58:38:276,-96,-360,14868,-171,91,-137,0
23:58:38:529,-196,-352,15068,-166,78,-135,0
23:58:38:782,-152,-340,15028,-155,51,-128,0
23:58:39:035,-208,-264,14972,-171,63,-122,0
23:58:39:286,-196,-392,15052,-149,65,-128,0
23:58:39:539,-224,-396,14912,-159,68,-127,0
23:58:39:792,-204,-296,14892,-149,103,-134,0
23:58:40:043,-156,-396,14888,-153,78,-138,0
23:58:40:296,-144,-308,15020,-161,48,-119,0
23:58:40:548,-204,-428,14928,-154,57,-142,0
23:58:40:800,-112,-344,14840,-145,75,-122,0
23:58:41:053,-180,-332,15008,-129,53,-123,0
23:58:41:305,-284,-372,15052,-153,69,-117,0
23:58:41:557,-160,-420,15056,-151,46,-116,0
23:58:41:810,-180,-292,14972,-151,59,-113,0
23:58:42:062,-112,-364,15060,-157,67,-127,0
23:58:42:314,-180,-392,14932,-144,92,-119,0
23:58:42:567,-212,-344,14908,-155,44,-131,0
23:58:42:819,-240,-344,15064,-146,53,-110,0
23:58:43:071,-140,-464,15004,-145,62,-125,0
23:58:43:324,-212,-408,15000,-162,50,-102,0
23:58:43:576,-196,-340,14900,-170,64,-104,0
23:58:43:827,-140,-368,14804,-162,90,-96,0
23:58:44:081,-116,-368,15016,-150,71,-121,0
23:58:44:333,-308,-332,15000,-160,90,-156,0
23:58:44:585,-116,-324,15008,-148,73,-105,0
23:58:44:838,-248,-384,15004,-153,57,-139,0
23:58:45:121,-188,-460,14944,-142,76,-139,0
23:58:45:342,-144,-404,14972,-174,64,-118,0
23:58:45:594,-220,-392,15076,-165,54,-134,0
23:58:45:848,-136,-264,15100,-160,85,-137,0
23:58:46:099,-204,-384,15048,-177,63,-144,0
23:58:46:351,-188,-420,14872,-154,63,-117,0
23:58:46:604,-240,-364,15116,-140,26,-131,0
23:58:46:856,-116,-332,15012,-156,69,-129,0
23:58:47:107,-292,-304,15012,-160,71,-134,0
23:58:47:360,-176,-332,15032,-161,76,-128,0
23:58:47:612,-196,-352,14908,-144,79,-109,0
23:58:47:864,-160,-396,15024,-156,48,-117,0
23:58:48:117,-136,-392,14900,-168,51,-114,0
23:58:48:369,-224,-392,15000,-166,49,-126,0
23:58:48:621,-248,-320,14988,-147,74,-118,0
23:58:48:874,-160,-300,14948,-181,65,-121,0
23:58:49:126,-152,-280,14840,-161,56,-147,0
23:58:49:378,-136,-392,14956,-167,22,-118,0
23:58:49:631,-116,-360,15012,-149,65,-121,0
23:58:49:884,-140,-376,15008,-151,54,-118,0
23:58:50:135,-116,-332,15004,-167,61,-103,0
23:58:50:387,-124,-392,15012,-161,96,-107,0
23:58:50:641,-252,-492,14968,-156,79,-108,0
23:58:50:893,-232,-368,14956,-149,104,-140,0
23:58:51:145,-184,-344,14904,-171,65,-140,0
23:58:51:397,-248,-388,14972,-141,68,-145,0
23:58:51:650,-260,-312,14764,-159,57,-139,0
23:58:51:902,-240,-320,15020,-159,50,-102,0
23:58:52:154,-172,-336,14964,-170,78,-113,0
23:58:52:406,-172,-352,14924,-168,77,-106,0
23:58:52:659,-176,-360,14960,-143,55,-123,0
23:58:52:910,-236,-380,14992,-162,73,-96,0
23:58:53:163,-180,-344,14988,-143,75,-134,0
23:58:53:415,-184,-440,14856,-148,49,-104,0
23:58:53:668,-260,-400,14924,-181,63,-108,0
23:58:53:920,-188,-304,14936,-152,69,-131,0
23:58:54:173,-132,-352,14944,-155,67,-106,0
23:58:54:425,-180,-424,15016,-163,72,-148,0
23:58:54:677,-240,-312,14980,-130,66,-123,0
23:58:54:929,-188,-416,14940,-150,80,-113,0
23:58:55:182,-128,-272,14952,-167,73,-102,0
23:58:55:434,-148,-352,14916,-166,73,-118,0
23:58:55:686,-208,-356,15020,-154,83,-116,0
23:58:55:939,-272,-372,14944,-162,55,-109,0
23:58:56:190,-224,-428,15084,-147,63,-94,0
23:58:56:444,-256,-360,14988,-156,55,-143,0
23:58:56:696,-208,-380,14900,-145,65,-114,0
23:58:56:948,-184,-288,14928,-166,72,-115,0
23:58:57:200,-228,-364,14936,-157,58,-131,0
23:58:57:453,-152,-400,15000,-163,55,-119,0
23:58:57:705,-160,-364,14956,-170,94,-133,0
23:58:57:957,-296,-372,14944,-179,65,-121,0
23:58:58:210,-196,-324,14956,-153,55,-138,0
23:58:58:462,-144,-396,15056,-158,81,-117,0
23:58:58:715,-260,-324,15048,-156,72,-109,0
23:58:58:967,-140,-392,15012,-189,56,-114,0
23:58:59:219,-124,-448,15060,-153,42,-103,0
23:58:59:471,-172,-308,14996,-184,87,-137,0
23:58:59:724,-172,-376,14904,-155,78,-130,0
23:58:59:976,-164,-352,14924,-154,74,-116,0
23:59:00:229,-188,-268,14856,-150,81,-116,0
23:59:00:482,-140,-224,15080,-173,64,-115,0
23:59:00:733,-204,-292,14972,-144,64,-122,0
23:59:00:986,-160,-340,14988,-155,55,-123,0
23:59:01:237,-80,-380,15020,-163,60,-131,0
23:59:01:490,-224,-300,14936,-144,90,-127,0
23:59:01:743,-176,-340,15084,-126,64,-108,0
23:59:01:995,-140,-276,15060,-155,62,-125,0
23:59:02:247,-160,-392,14984,-173,59,-141,0
23:59:02:500,-148,-396,15096,-169,45,-117,0
23:59:02:752,-224,-288,14908,-143,64,-125,0
23:59:03:005,-216,-340,14912,-151,56,-127,0
23:59:03:256,-88,-380,14992,-167,61,-107,0
23:59:03:509,-208,-340,14832,-160,68,-108,0
23:59:03:761,-196,-392,14932,-158,49,-102,0
23:59:04:014,-244,-428,15016,-172,91,-113,0
23:59:04:266,-192,-356,14980,-164,62,-131,0
23:59:04:519,-132,-432,15072,-163,54,-113,0
23:59:04:771,-280,-284,14984,-167,50,-139,0
23:59:05:023,-244,-380,14848,-178,68,-111,0
23:59:05:275,-112,-292,14936,-148,52,-123,0
23:59:05:528,-100,-284,15000,-134,68,-121,0
23:59:05:780,-136,-312,14948,-155,64,-105,0
23:59:06:032,-100,-220,15052,-145,77,-130,0
23:59:06:285,-124,-308,14992,-161,52,-144,0
23:59:06:537,-224,-308,14908,-175,59,-107,0
23:59:06:789,-236,-364,14924,-179,89,-121,0
23:59:07:042,-168,-216,15072,-141,53,-104,0
23:59:07:294,-116,-336,14824,-162,61,-121,0
23:59:07:546,-232,-428,14908,-161,69,-128,0
23:59:07:798,-176,-328,15000,-156,69,-124,0
23:59:08:051,-176,-392,14996,-159,89,-136,0
23:59:08:302,-244,-368,14996,-162,70,-89,0
23:59:08:555,-204,-356,14944,-167,64,-127,0
23:59:08:808,-144,-480,15144,-171,58,-114,0
23:59:09:060,-148,-356,15024,-149,61,-128,0
23:59:09:312,-172,-360,14984,-138,66,-127,0
23:59:09:565,-104,-392,14980,-164,59,-134,0
23:59:09:817,-116,-364,14988,-150,91,-132,0
23:59:10:069,-208,-352,14976,-153,58,-139,0
23:59:10:321,-148,-428,14988,-170,56,-99,0
23:59:10:574,-168,-424,15012,-158,73,-105,0
23:59:10:827,-228,-368,15188,-166,63,-128,0
23:59:11:079,-144,-280,14940,-146,45,-133,0
23:59:11:331,-160,-444,15036,-167,46,-109,0
23:59:11:584,-120,-416,14928,-128,57,-116,0
23:59:11:836,-176,-440,14936,-146,68,-121,0
23:59:12:088,-180,-392,14904,-157,70,-120,0
23:59:12:340,-216,-368,15060,-158,90,-108,0
23:59:12:593,-264,-384,15196,-133,57,-132,0
23:59:12:844,-216,-420,15084,-162,61,-95,0
23:59:13:097,-168,-308,14932,-142,73,-105,0
23:59:13:349,-44,-324,15060,-163,76,-112,0
23:59:13:602,-192,-404,15192,-139,66,-126,0
23:59:13:854,-240,-296,15020,-165,47,-114,0
23:59:14:107,-200,-372,14972,-155,58,-129,0
23:59:14:359,-144,-392,14980,-160,59,-125,0
23:59:14:611,-188,-348,14996,-150,72,-110,0
23:59:14:864,-124,-404,15000,-149,45,-119,0
23:59:15:116,-216,-384,14948,-138,57,-133,0
23:59:15:368,-220,-332,15024,-142,59,-129,0
23:59:15:621,-240,-320,15052,-149,66,-127,0
23:59:15:873,-144,-440,15044,-158,53,-131,0
23:59:16:125,-144,-436,15040,-163,77,-108,0
23:59:16:378,-144,-296,15008,-145,50,-111,0
23:59:16:630,-112,-464,14864,-156,58,-143,0
23:59:16:882,-272,-416,14992,-142,61,-101,0
23:59:17:135,-164,-368,15008,-162,48,-126,0
23:59:17:386,-72,-368,15132,-172,42,-105,0
23:59:17:639,-140,-396,15032,-163,78,-131,0
23:59:17:890,-192,-424,15016,-156,54,-121,0
23:59:18:143,-288,-368,14984,-167,61,-123,0
23:59:18:395,-248,-356,15036,-143,58,-129,0
23:59:18:646,-80,-420,14936,-173,70,-114,0
23:59:18:900,-168,-392,15128,-160,52,-105,0
23:59:19:152,-216,-284,14908,-174,80,-111,0
23:59:19:406,-112,-244,15072,-157,-69,-113,0
23:59:19:657,-176,-364,14712,-159,47,-124,0
23:59:19:908,-72,-332,15152,-162,48,-108,0
23:59:20:162,-160,-356,14912,-155,73,-116,0
23:59:20:414,-220,-248,14988,-143,37,-108,0
23:59:20:666,-184,-352,15164,-153,60,-136,0
23:59:20:919,-192,-440,14972,-148,42,-122,0
23:59:21:171,-232,-344,14952,-116,59,-124,0
23:59:21:423,-252,-284,14992,-187,74,-132,0
23:59:21:675,-220,-420,15108,-160,62,-124,0
23:59:21:928,-260,-388,14932,-155,96,-119,0
23:59:22:180,-216,-200,14876,-157,54,-122,0
23:59:22:432,-244,-404,15024,-169,68,-116,0
23:59:22:686,-204,244,15196,-202,-209,-143,0
23:59:22:941,-1004,-612,15332,-1192,-1608,-91,0
23:59:23:192,-5656,-1648,-5548,-101,-91,-153,1
23:59:23:444,-1436,-388,20448,968,1674,-143,1
23:59:23:699,-2456,7900,25424,-1825,-1798,-105,1
23:59:23:948,4200,8452,1308,-1609,1612,-356,0
23:59:24:202,1284,-2388,20964,-855,-898,-151,1
23:59:24:451,1400,-808,21044,-56,-337,-76,1
23:59:24:707,-4380,-11140,23440,-147,998,-339,1
23:59:24:954,52,3636,9272,1568,-1203,45,1
23:59:25:210,-324,-2976,32767,2300,3513,-82,1
23:59:25:456,1300,-184,9404,700,6,-17,0
23:59:25:715,-796,-3048,13632,-240,-745,-51,0
23:59:25:965,-184,412,15276,-574,386,-162,0
23:59:26:216,2356,628,24644,85,2049,-202,1
23:59:26:468,-3272,1148,6772,-44,548,-4,0
23:59:26:724,-1480,-2328,32767,340,-1467,45,1
23:59:26:976,-6272,172,32767,1902,-2063,-73,1
23:59:27:227,524,-3808,17960,-108,961,-68,0
23:59:27:478,52,-1048,20832,704,-337,-99,1
23:59:27:730,-680,908,18132,-339,26,-155,1
23:59:27:984,956,-3492,13820,-438,846,-243,0
23:59:28:236,-316,1624,13588,-45,778,-177,0
23:59:28:489,-920,504,15900,-236,-390,-209,1
23:59:28:739,496,1108,8828,-185,415,-72,0
23:59:28:995,-452,-1104,22568,-642,940,-187,1
23:59:29:246,540,-2068,29212,508,-391,-140,1
23:59:29:500,-128,1496,10360,-769,-440,-127,1
23:59:29:751,416,-1056,9104,-1199,2005,-44,1
23:59:30:000,3468,-2832,19360,506,-42,1,1
23:59:30:257,1312,2720,14656,-291,-173,-107,1
23:59:30:509,-5900,-2436,19836,3260,-33,-70,1
23:59:30:762,-576,-1088,18300,1157,-2140,-24,1
23:59:31:015,1164,-2632,13304,-468,2893,-133,0
23:59:31:264,-2224,2716,19080,92,714,-118,1
23:59:31:517,-872,-960,12140,-89,-1154,-18,1
23:59:31:772,-1104,-6880,15900,612,-688,-143,1
23:59:32:024,1608,2244,3628,-2012,-1444,-109,1
23:59:32:271,568,336,21512,1473,442,-23,0
23:59:32:529,4388,-2880,15864,-704,1377,-105,0
23:59:32:778,408,-2184,5596,-847,307,-108,0
23:59:33:035,-1408,2452,10068,-408,-1177,-159,1
23:59:33:286,-1152,-268,14184,-1212,-96,-176,1
23:59:33:535,-232,-392,13648,-277,67,-116,1
23:59:33:788,-284,-472,14388,-204,80,-128,1
23:59:34:041,-224,-140,14884,-162,-28,-132,0
23:59:34:292,-220,-236,14732,-150,63,-103,0
23:59:34:546,-416,-352,14556,-173,146,-119,0
23:59:34:796,1088,-960,15972,15,303,-111,0
23:59:35:049,1496,-2708,25348,144,186,-82,0
23:59:35:301,-72,-528,16492,-175,188,-159,0
23:59:35:555,-348,-504,14804,-157,112,-115,0
23:59:35:807,-192,-316,14600,-142,72,-118,0
23:59:36:060,-268,-440,15280,-164,50,-102,0
23:59:36:313,-248,-424,15416,-138,80,-121,0
23:59:36:563,-180,-328,14928,-163,75,-120,0
23:59:36:815,-328,336,13912,-204,77,-130,0
23:59:37:068,-196,-200,15188,-165,427,-87,0
23:59:37:322,-628,-428,15880,-163,-44,-160,0
23:59:37:574,-288,-348,15600,-166,124,-103,0
23:59:37:825,-296,-548,14988,-138,32,-144,0
23:59:38:076,-328,-364,15160,-146,76,-99,0
23:59:38:330,-348,-404,14780,-176,88,-125,0
23:59:38:582,-252,-316,14724,-142,57,-101,0
23:59:38:834,-236,-304,14928,-165,84,-124,0
23:59:39:087,-328,-324,14972,-153,72,-129,0
23:59:39:340,-336,-420,15004,-152,34,-114,0
23:59:39:591,-260,-412,15068,-158,55,-137,0
23:59:39:844,-276,-288,14928,-161,83,-128,0
23:59:40:096,-248,-396,14876,-147,53,-125,0
23:59:40:348,-308,-328,14856,-162,98,-125,0
23:59:40:601,-264,-300,15016,-147,98,-124,0
23:59:40:853,-296,-436,14880,-130,74,-132,0
23:59:41:107,-384,-588,14836,-183,109,-130,0
23:59:41:358,-232,-188,15056,-144,43,-118,0
23:59:41:610,-272,-280,15100,-150,68,-119,0
23:59:41:863,-244,-356,14920,-140,55,-123,0
23:59:42:116,-280,-272,15004,-141,37,-119,0
23:59:42:367,-316,-348,14936,-151,34,-116,0
23:59:42:620,-368,-296,15260,-159,58,-112,0
23:59:42:871,104,-144,15192,-127,38,-154,0
23:59:43:123,712,-392,13276,276,458,-152,0
23:59:43:380,-3168,-2556,13696,495,-879,-142,1
23:59:43:631,1056,-2024,19468,-766,257,-224,1
23:59:43:884,-312,264,13648,-216,141,-137,0
23:59:44:136,-1320,176,14168,-684,-303,-201,1
23:59:44:383,1308,420,15132,32,300,-78,1
23:59:44:638,-492,4140,7296,-757,-88,-230,0
23:59:44:889,-420,100,16348,-236,85,-240,1
23:59:45:143,1172,3420,12912,-309,-39,-82,0
23:59:45:398,2188,-1128,13016,-558,-166,-190,0
23:59:45:650,-1876,-4972,24984,-55,-259,-72,1
23:59:45:904,3056,-1060,13016,-1536,1252,-364,1
23:59:46:153,5544,612,-1256,-747,2447,-223,1
23:59:46:404,-3312,152,8876,916,-697,-111,0
23:59:46:659,-2512,-772,5676,-1323,-83,-75,0
23:59:46:908,228,1668,17848,810,1302,-80,0
23:59:47:165,-1292,-1540,9512,-523,-429,-83,1
23:59:47:415,-1632,3752,-11660,85,936,-129,1
23:59:47:668,-420,-1120,16800,-236,-387,-82,0
23:59:47:920,-1964,-4744,19084,800,-2407,21,1
23:59:48:172,-3164,496,21052,-304,636,-108,1
23:59:48:424,1552,3696,11860,-139,361,-110,1
23:59:48:678,3704,2912,5080,-1489,1167,-193,1
23:59:48:928,-140,-1768,13516,174,612,-91,0
23:59:49:181,196,-2004,19280,-892,603,-243,0
23:59:49:432,-5956,-4720,30584,1426,560,4,1
23:59:49:686,-1660,-524,9732,1398,1711,-52,0
23:59:49:940,-3372,-2776,15908,-64,1703,-341,1
23:59:50:193,-1516,1704,19260,-934,1045,-111,0
23:59:50:442,-2044,60,8028,-292,1213,-178,0
23:59:50:697,-1476,-960,19888,-360,-560,-66,1
23:59:50:948,-360,2176,14468,-312,615,-130,0
23:59:51:200,5464,588,7884,-2845,1123,-497,1
23:59:51:454,-2560,1520,18816,361,-1224,-59,0
23:59:51:704,-704,-7080,32767,2610,507,-6,0
23:59:51:959,-5948,2348,12060,1517,-3307,186,1
23:59:52:213,-2172,-3712,17068,-578,-1049,-40,1
23:59:52:461,72,-10628,21436,2294,-1474,7,1
23:59:52:712,112,2140,25332,27,5827,-230,1
23:59:52:967,-2012,1380,13004,-108,222,-91,1
23:59:53:223,-3752,-2576,17920,-1495,-582,-261,1
23:59:53:472,-300,-220,13252,-325,-388,-122,1
23:59:53:724,-168,-352,15368,-206,239,-114,0
23:59:53:977,-332,-64,14848,-185,-170,-109,0
23:59:54:228,-128,-304,15820,-152,-26,-126,0
23:59:54:481,-1816,720,10896,-313,-36,-140,0
23:59:54:729,-264,-440,15024,30,23,-85,0
23:59:54:983,-108,-540,15268,-57,80,-111,0
23:59:55:237,-172,-436,15160,-102,59,-124,0
23:59:55:489,-204,-292,14816,-154,77,-121,0
23:59:55:742,-256,-204,14800,-144,-38,-121,0
23:59:55:994,-304,-900,14772,-121,14,-103,0
23:59:56:246,-196,-428,14972,-138,27,-110,0
23:59:56:499,-192,-340,15152,-149,58,-120,0
23:59:56:751,-232,-296,14912,-158,67,-125,0
23:59:57:003,-300,-428,14956,-159,53,-104,0
23:59:57:255,-272,-292,15044,-150,79,-120,0
23:59:57:508,-136,-304,14676,-177,85,-133,0
23:59:57:760,-120,-224,15048,-175,73,-115,0
23:59:58:011,-96,-436,14920,-135,89,-117,0
23:59:58:265,-240,-300,15032,-138,56,-119,0
23:59:58:517,-188,-268,14708,-174,82,-133,0
23:59:58:769,-244,-360,14940,-163,76,-107,0
23:59:59:022,-140,-296,14784,-174,88,-126,0
23:59:59:274,-212,-456,14928,-175,80,-137,0
23:59:59:526,-200,-380,14984,-167,64,-106,0
23:59:59:779,-224,-388,15012,-154,54,-142,0
00:00:00:031,-320,-388,15056,-150,61,-114,0
00:00:00:283,-260,-300,15096,-158,61,-139,0
00:00:00:536,-136,-580,15000,-135,51,-107,0
00:00:00:788,-92,-320,15080,-130,59,-116,0
00:00:01:040,-128,-436,15032,-166,41,-116,0
00:00:01:295,-4508,-6664,23180,816,-829,-65,1
00:00:01:548,-1212,2832,19568,-1372,943,-152,1
00:00:01:799,-4496,-2060,8936,-526,-2765,75,1
00:00:02:052,7088,836,-5300,-1316,1758,-211,1
00:00:02:304,4432,4524,23896,-194,2882,-287,1
00:00:02:557,-624,1908,12612,-1280,-845,-128,0
00:00:02:808,1592,-4904,32767,906,-58,-127,0
00:00:03:064,10764,9400,-17788,-4133,436,-476,1
00:00:03:314,-2120,-1172,13764,2288,-1338,99,1
00:00:03:569,-3056,-2792,32748,-362,-3751,-104,1
00:00:03:817,7264,2788,8584,-1101,-40,-124,1
00:00:04:070,1444,1116,-9392,-172,1577,-137,1
00:00:04:324,-1280,2980,1580,-3146,-537,-379,1
00:00:04:577,-4124,-5020,14432,-194,-2592,-45,1
00:00:04:827,8200,-4296,20748,1938,2643,-72,1
00:00:05:080,-632,-2716,1004,631,-1558,-123,1
00:00:05:329,1376,6512,5120,-154,280,-38,1
00:00:05:582,-132,648,11708,-295,912,-144,0
00:00:05:836,-460,-252,14672,-107,210,-145,0
00:00:06:085,-404,-288,14936,-71,77,-98,0
00:00:06:339,-284,-464,14320,-183,569,-98,0
00:00:06:592,-304,-288,15304,-185,262,-95,1
00:00:06:844,-256,-116,15020,-157,30,-130,0
00:00:07:097,-272,-220,14844,-152,105,-116,0
00:00:07:347,-48,-396,14944,-138,50,-135,0
00:00:07:601,-564,-760,16376,-217,181,-95,0
00:00:07:852,-228,-332,14740,-173,0,-112,1
00:00:08:106,-188,212,13484,-261,-335,-171,1
00:00:08:357,-396,-376,14432,-179,8,-114,0
00:00:08:610,304,-420,15096,-151,-3,-124,0
00:00:08:862,-332,-400,15048,-195,43,-113,0
00:00:09:114,-240,-408,15244,-172,52,-89,0
00:00:09:368,-312,-384,14804,-160,44,-126,0
00:00:09:620,-312,-404,14968,-173,94,-114,0
00:00:09:872,-284,-416,14972,-155,38,-134,0
00:00:10:125,-396,-308,15108,-152,69,-131,0
00:00:10:377,-324,-360,14820,-155,61,-117,0
00:00:10:629,-272,-312,14964,-159,92,-141,0
00:00:10:882,-316,-320,14888,-144,57,-135,0
00:00:11:134,-352,-284,14988,-158,63,-128,0
00:00:11:386,-284,-408,15116,-147,66,-122,0
00:00:11:641,-320,-1200,15040,-524,507,-127,1
00:00:11:893,-312,-1020,15268,-69,181,-116,0
00:00:12:144,-348,-680,15316,-261,108,-137,0
00:00:12:395,-384,-380,15296,-178,26,-140,0
00:00:12:650,4484,-2452,21256,871,-1224,-15,1
00:00:12:902,5556,-3616,19908,2144,-527,-91,1
00:00:13:155,-612,3380,5228,-1731,-288,-154,1
00:00:13:406,3480,1876,14328,1858,2474,-44,1
00:00:13:655,-328,-80,17004,701,477,-26,1
00:00:13:909,11140,12096,464,5961,-53,375,1
00:00:14:163,828,-3296,29072,-360,1095,-82,1
00:00:14:417,3276,-3052,19136,2054,1581,178,1
00:00:14:664,-1924,928,5672,382,-77,-72,0
00:00:14:924,-10400,3908,-11644,-416,-228,-296,1
00:00:15:171,1000,-2928,29668,493,142,148,1
00:00:15:426,8540,-456,7368,3399,-2079,305,1
00:00:15:675,4996,-2420,32767,29,80,-208,1
00:00:15:931,-1056,5456,-3784,-2449,625,-279,0
00:00:16:181,-3336,580,24716,372,-969,-109,0
00:00:16:432,-44,-1312,15096,-257,54,-98,0
00:00:16:684,-40,-628,14736,-191,71,-120,0
00:00:16:937,-180,-584,14900,-168,63,-119,0
00:00:17:188,-112,-404,15084,-25,31,-90,0
00:00:17:442,-196,-376,14792,-122,95,-117,0
00:00:17:693,80,-1560,19820,301,-210,-60,0
00:00:17:947,-368,-392,16888,-550,13,-149,0
00:00:18:200,-260,-672,15428,-346,158,-132,0
00:00:18:451,-236,-464,15116,-209,60,-124,0
00:00:18:704,-148,-452,15276,-105,55,-136,0
00:00:18:956,-252,-376,15164,-132,75,-108,0
00:00:19:208,-176,-304,15012,-160,76,-136,0
00:00:19:461,-80,-340,15176,-172,265,-126,0
00:00:19:711,-116,16,14624,-141,86,-128,0
00:00:19:967,-140,-460,15276,-159,-102,-126,0
00:00:20:215,0,-360,14328,-179,-47,-125,0
00:00:20:470,-156,-628,14896,-111,50,-122,0
00:00:20:723,-304,-532,15116,-156,-31,-155,0
00:00:20:975,-216,-324,15568,-132,11,-141,0
00:00:21:229,-156,-368,15024,-159,109,-148,0
00:00:21:479,-252,-408,14668,-169,87,-113,0
00:00:21:732,-228,-316,15004,-188,23,-115,0
00:00:21:984,-192,-320,15196,-170,97,-118,0
00:00:22:237,-140,-272,14880,-161,103,-114,0
00:00:22:488,-112,-312,14752,-126,34,-121,0
00:00:22:741,-180,-420,15116,-152,44,-127,0
00:00:22:993,-148,-308,15008,-173,90,-114,0
00:00:23:245,-248,-304,14884,-161,67,-117,0
00:00:23:498,-116,-320,14968,-126,62,-107,0
00:00:23:750,-140,-256,14936,-156,65,-141,0
00:00:24:003,-256,-332,14952,-168,77,-113,0
00:00:24:255,-180,-396,15180,-154,67,-104,0
00:00:24:507,-284,-192,14852,-209,82,-136,0
00:00:24:759,-224,-504,15080,-161,79,-115,0
00:00:25:012,-240,-236,14936,-198,67,-117,0
00:00:25:263,-140,-692,15088,59,271,-105,0
00:00:25:519,876,-7940,28140,-440,1561,-308,1
00:00:25:772,-3204,-1276,19460,2192,2576,-96,1
00:00:26:026,-1320,10208,21924,-5864,2144,-400,1
00:00:26:277,804,5112,19108,-3782,-1626,-183,1
00:00:26:529,3560,-2432,32767,-278,2095,-239,1
00:00:26:780,148,-1212,17364,-861,1363,-292,1
00:00:27:034,-3752,3128,13164,-1197,-781,-146,0
00:00:27:285,-1904,-4288,10308,1559,140,-44,1
00:00:27:537,-236,-4276,27692,2184,1781,-70,1
00:00:27:789,-2688,1888,23236,197,-784,-100,1
00:00:28:043,-2936,2528,26712,-1063,665,-178,1
00:00:28:294,3548,-9280,26296,2780,-1614,32,1
00:00:28:544,-7064,852,4892,-462,-1155,25,1
00:00:28:800,-804,-6796,23324,1557,-1949,202,1
00:00:29:051,164,8124,-1512,-1203,-718,-102,0
00:00:29:304,-108,-12352,32767,3742,-143,218,1
00:00:29:553,2220,1036,16152,-82,640,-33,1
00:00:29:808,-272,-408,13684,-257,-401,-119,1
00:00:30:058,-376,-348,14892,-271,140,-98,0
00:00:30:309,-500,460,12296,-772,71,-153,0
00:00:30:562,-72,-52,14508,-177,238,-104,0
00:00:30:814,-548,156,14164,-139,656,-86,0
00:00:31:065,96,-408,15656,-291,426,-28,0
00:00:31:319,-72,-244,15908,-198,123,-98,0
00:00:31:573,-84,-124,15504,-102,-211,-161,0
00:00:31:824,-96,-108,15240,-171,479,-74,0
00:00:32:077,-356,-512,14528,-164,56,-152,0
00:00:32:329,-296,-332,14988,-144,81,-129,0
00:00:32:582,-340,-332,15032,-151,56,-119,0
00:00:32:834,-268,-368,15216,-165,59,-114,0
00:00:33:086,-256,-332,15016,-165,72,-118,0
00:00:33:341,-248,-348,15060,-152,42,-142,0
00:00:33:591,-340,-356,14996,-166,76,-133,0
00:00:33:843,-380,-368,14852,-160,83,-134,0
00:00:34:096,-360,-316,14952,-165,79,-135,0
00:00:34:348,-324,-352,14836,-156,65,-140,0
00:00:34:600,-316,-332,14980,-174,62,-119,0
00:00:34:853,-236,-440,15048,-160,69,-120,0
00:00:35:105,-292,-436,15020,-168,43,-128,0
00:00:35:356,-248,-332,15056,-173,59,-94,0
00:00:35:609,-316,-288,15156,-156,70,-122,0
00:00:35:862,-216,-368,14948,-183,75,-128,0
00:00:36:114,-200,-324,15000,-150,67,-111,0
00:00:36:366,-380,-380,14988,-171,66,-104,0
00:00:36:618,-268,96,15708,-172,279,-154,0
00:00:36:873,464,-1988,21632,-572,1738,-210,1
00:00:37:121,148,468,2148,-418,2482,-28,1
00:00:37:380,5560,-11928,31132,1754,-585,-153,1
00:00:37:630,3104,-4156,12860,2106,308,-176,1
00:00:37:880,-360,-644,-5364,959,384,-109,1
00:00:38:133,1512,-8352,32767,1140,78,-67,1
00:00:38:390,-2068,-1004,19044,-1389,1294,-113,1
00:00:38:640,2804,1604,10408,-778,-365,-151,1
00:00:38:892,1824,4036,11108,-562,-581,-138,1
00:00:39:143,-4644,-4396,7716,1884,-990,26,1
00:00:39:390,668,1656,6460,-331,1,-96,1
00:00:39:646,1080,636,6792,-980,901,-258,1
00:00:39:900,1036,-5792,17148,612,741,-218,1
00:00:40:153,1048,-3728,28248,369,-258,-24,0
00:00:40:406,3712,5832,8392,-2985,2270,-375,1
00:00:40:654,316,116,18908,560,-128,-27,0
00:00:40:910,-1968,-444,14208,224,1673,-219,0
00:00:41:161,292,-3052,24476,19,-273,-116,1
00:00:41:412,88,-376,15592,785,2450,-143,1
00:00:41:668,-276,-280,13440,-407,-427,-127,1
00:00:41:919,-228,-152,15372,-153,169,-138,0
00:00:42:170,-228,-368,14540,-168,24,-112,1
00:00:42:422,-420,-232,14864,-152,78,-118,1
00:00:42:675,-184,-96,15032,-237,123,-136,0
00:00:42:926,536,-756,14368,67,-478,-122,1
00:00:43:181,-148,-148,14436,-307,264,-124,0
00:00:43:432,-188,-312,14736,-212,32,-118,0
00:00:43:684,-156,-400,15148,-173,15,-125,0
00:00:43:937,-236,-368,15108,-146,99,-108,0
00:00:44:190,-548,-164,14092,-259,-26,-130,0
00:00:44:439,12,-368,15384,-143,81,-136,0
00:00:44:695,-268,-108,14852,-191,-23,-119,0
00:00:44:946,-296,-316,14720,-135,75,-109,0
00:00:45:199,-212,-264,14992,-174,122,-126,0
00:00:45:450,-124,-396,14876,-148,46,-132,0
00:00:45:703,-276,-412,15084,-157,60,-129,0
00:00:45:955,-196,-264,14956,-151,92,-121,0
00:00:46:215,-260,-352,15088,-137,93,-109,0
00:00:46:461,-236,-584,15100,-178,-36,-131,0
00:00:46:713,-176,-396,15268,-128,76,-136,0
00:00:46:964,-156,-372,15020,-167,69,-101,0
00:00:47:217,-160,-336,14900,-137,62,-111,0
00:00:47:469,-184,-368,15000,-149,53,-104,0
00:00:47:721,-128,-272,15120,-134,93,-117,0
00:00:47:973,-208,-332,14948,-157,92,-116,0
00:00:48:226,-188,-408,15092,-174,81,-110,0
00:00:48:478,-208,-376,15028,-153,52,-140,0
00:00:48:732,-132,-324,15060,-140,75,-128,0
00:00:48:983,-284,-368,14876,-124,64,-161,0
00:00:49:235,-148,-268,15000,-175,60,-123,0
00:00:49:487,-236,-300,14876,-144,67,-121,0
00:00:49:740,-244,-320,15032,-143,75,-119,0
00:00:49:992,-276,-428,14912,-149,82,-120,0
00:00:50:244,-148,-376,14936,-157,101,-99,0
00:00:50:496,-276,-396,14760,-153,59,-92,0
00:00:50:749,-196,-616,15336,-197,10,-101,0
00:00:51:004,676,-524,12316,-1216,-404,-165,0
00:00:51:254,-2416,2936,14328,0,-1029,-85,0
00:00:51:509,-3912,5432,8208,-2421,-2137,-92,0
00:00:51:761,-1324,-2608,21612,1840,204,-52,0
00:00:52:013,-3920,1696,8800,-823,-1557,-34,1
00:00:52:265,-172,668,-6396,-3323,701,-324,1
00:00:52:520,-3744,3204,16620,-1079,-622,-141,0
00:00:52:769,244,-3428,15876,774,-1586,114,1
00:00:53:024,-4388,3192,6956,-1759,-2082,-59,1
00:00:53:275,-2668,148,5564,-1074,1266,-175,0
00:00:53:526,704,-2860,14148,-363,-1849,16,0
00:00:53:781,-3772,4736,1172,-1115,2144,-230,0
00:00:54:032,876,188,24152,-1507,-1164,-146,0
00:00:54:288,-1516,-1060,13172,-5901,-1001,-429,1
00:00:54:537,-1868,-2188,32668,-1028,174,41,1
00:00:54:791,-1644,-6300,19708,675,-3559,-272,1
00:00:55:043,-2232,-872,29372,1344,-1184,-135,0
00:00:55:292,7244,-9740,4408,2250,-1026,-1,1
00:00:55:544,-880,-352,18080,-477,17,-135,1
00:00:55:794,12,512,20272,-350,-690,-83,1
00:00:56:047,-500,-720,15708,-72,0,-112,1
00:00:56:301,-400,-232,14336,-186,33,-119,1
00:00:56:553,-328,-308,14928,-160,84,-139,1
00:00:56:805,-372,-376,14820,-148,75,-132,0
00:00:57:060,-840,-1072,13100,258,-901,-166,1
00:00:57:323,-240,-280,15852,-486,174,-146,0
00:00:57:564,-452,-480,16360,-128,-240,-191,1
00:00:57:816,504,-480,17384,-139,-479,-230,1
00:00:58:066,-172,204,14048,-244,13,-113,0
00:00:58:317,-212,-56,15008,-173,8,-131,0
00:00:58:572,-260,-428,14860,-206,318,-92,0
00:00:58:825,-404,-420,15068,-157,-45,-139,0
00:00:59:076,-344,-304,15064,-139,72,-112,0
00:00:59:329,-348,-240,14928,-146,49,-120,0
00:00:59:581,-324,-504,14920,-156,80,-118,0
00:00:59:833,-308,-356,15112,-144,64,-130,0
00:01:00:086,-396,-376,15124,-171,79,-132,0
00:01:00:338,-312,-364,14920,-137,44,-128,0
00:01:00:590,-348,-308,14884,-167,63,-108,0
00:01:00:843,-420,-368,14964,-176,66,-123,0
00:01:01:095,-360,-396,15008,-180,79,-127,0
00:01:01:347,-348,-480,15008,-168,43,-142,0
00:01:01:600,-296,-476,15120,-152,51,-129,0
00:01:01:852,-312,-416,15076,-161,83,-133,0
00:01:02:104,-340,-400,15032,-165,84,-116,0
00:01:02:357,-396,-264,15056,-155,58,-132,0
00:01:02:609,-332,-224,15152,-149,72,-122,0
00:01:02:861,-320,-392,15008,-179,64,-123,0
00:01:03:113,-428,-452,15008,-128,80,-108,0
00:01:03:366,-324,-256,14924,-160,41,-118,0
00:01:03:618,-360,-488,15108,-140,87,-134,0
00:01:03:870,-212,-308,14676,-143,45,-127,0
00:01:04:123,-352,-328,14980,-154,43,-140,0
00:01:04:376,912,-3056,14236,67,-1391,-177,1
00:01:04:634,-6840,-18084,32767,1303,-2090,-182,0
00:01:04:884,-1088,-812,-18776,4063,-491,-150,1
00:01:05:130,7616,344,20396,962,442,-28,1
00:01:05:389,-7392,-2632,16316,-827,-436,-225,1
00:01:05:642,-5476,-4916,32767,-1925,-2332,-6,1
00:01:05:894,-8944,1276,19468,-309,-1271,-115,1
00:01:06:143,9896,-7740,32767,1908,1635,-7,1
00:01:06:396,1392,3604,6528,-1697,1002,-146,1
00:01:06:650,-528,-9996,29104,2097,1669,-159,1
00:01:06:903,2952,1328,32767,-4204,-3093,-165,1
00:01:07:154,12440,4348,1472,-2717,2332,-258,1
00:01:07:404,2708,-916,13228,872,-1338,26,1
00:01:07:655,-168,2128,5012,-3021,6,-283,1
00:01:07:908,7264,5512,1332,390,-3549,-26,1
00:01:08:160,-288,-16,15524,-137,499,-184,1
00:01:08:414,-312,-192,16112,-160,-61,-129,0
00:01:08:665,-208,-236,14888,-178,54,-132,0
00:01:08:918,-184,-288,15036,-144,60,-119,0
00:01:09:171,-96,-1092,15028,-118,-60,-104,0
00:01:09:421,164,192,15236,-519,94,-167,0
00:01:09:675,-152,-268,14908,-299,101,-135,0
00:01:09:928,-56,-820,15184,-183,46,-153,0
00:01:10:182,-868,-1032,14088,-243,-143,-118,0
00:01:10:429,56,104,15360,-171,228,-112,0
00:01:10:683,-264,268,14260,-260,31,-136,0
00:01:10:936,-308,-388,15092,-140,-8,-131,0
00:01:11:188,-120,-336,15156,-147,60,-128,0
00:01:11:442,-168,-268,15176,-131,101,-142,0
00:01:11:693,-244,-340,14740,-154,59,-121,0
00:01:11:945,-132,-324,15052,-133,49,-124,0
00:01:12:198,-228,-340,15056,-149,69,-106,0
00:01:12:450,-180,-444,14988,-151,68,-133,0
00:01:12:701,-180,-336,15064,-153,45,-96,0
00:01:12:955,-216,-336,15068,-153,63,-116,0
00:01:13:207,-172,-488,15064,-145,78,-141,0
00:01:13:459,-168,-344,15128,-159,63,-116,0
00:01:13:712,-188,-384,15040,-163,58,-137,0
00:01:13:964,-260,-408,14932,-132,68,-118,0
00:01:14:217,-156,-296,15064,-129,85,-126,0
00:01:14:469,-216,-376,15068,-145,44,-116,0
00:01:14:721,-268,-388,15008,-176,41,-107,0
00:01:14:973,-204,-344,15056,-160,71,-117,0
00:01:15:226,-176,-308,15024,-157,62,-116,0
00:01:15:478,-164,-268,15036,-155,72,-128,0
00:01:15:730,-180,-316,14960,-170,66,-125,0
00:01:15:983,-268,-448,15044,-183,76,-118,0
00:01:16:235,-212,-420,14884,-161,53,-118,0
00:01:16:487,-140,-320,15092,-138,53,-117,0
00:01:16:740,-204,-332,14964,-155,71,-124,0
00:01:16:992,-200,-280,15000,-136,34,-108,0
00:01:17:245,1212,-868,12020,-768,539,-179,0
00:01:17:500,-5704,-5328,32767,3611,-221,121,1
00:01:17:749,1444,836,20612,-146,-726,-47,1
00:01:18:000,568,-9168,1348,2960,140,-41,1
00:01:18:255,3688,4868,-7928,-415,145,-207,0
00:01:18:508,6920,-2952,28236,3031,194,-153,1
00:01:18:758,544,-2200,3584,-2447,-899,13,1
00:01:19:011,-6816,776,212,-2696,463,-459,1
00:01:19:263,-3600,380,10924,1200,1047,56,1
00:01:19:520,1292,-22132,32644,4159,-3769,-37,1
00:01:19:772,-7576,-9232,26420,1409,-611,-103,1
00:01:20:023,3960,8076,6112,-3491,-204,-165,1
00:01:20:273,3980,1984,2140,-598,346,-276,0
00:01:20:527,-1604,4928,8568,-1755,343,-212,0
00:01:20:779,-304,-1268,15052,-429,429,-137,1
00:01:21:031,-260,-296,13780,-250,207,-148,0
00:01:21:283,-420,-160,14800,-220,102,-137,0
00:01:21:534,-256,-332,15440,-159,79,-128,0
00:01:21:786,-316,-444,15188,-146,45,-83,0
00:01:22:039,-292,-424,14840,-159,79,-119,0
00:01:22:292,-248,-284,14964,-178,65,-128,0
00:01:22:543,-316,-388,14892,-168,67,-112,0
00:01:22:795,-424,-364,14772,-153,83,-112,0
00:01:23:047,-372,-360,14944,-178,88,-107,0
00:01:23:300,-224,-292,15088,-162,79,-106,0
00:01:23:552,-324,-464,14816,-150,63,-105,0
00:01:23:805,-268,-400,15144,-166,43,-111,0
00:01:24:057,-296,-284,15040,-154,78,-137,0
00:01:24:309,-372,-404,14920,-166,65,-125,0
00:01:24:562,-240,-336,14948,-143,54,-117,0
00:01:24:814,-248,-396,15032,-159,46,-126,0
00:01:25:066,-116,-224,15052,-149,59,-138,0
00:01:25:318,-260,-372,14960,-155,70,-117,0
00:01:25:571,-332,-364,15036,-167,64,-116,0
00:01:25:823,-232,-236,14924,-151,79,-126,0
00:01:26:075,-332,-336,14920,-153,75,-118,0
00:01:26:327,-376,-376,15036,-165,65,-132,0
00:01:26:580,-324,-328,15096,-133,73,-112,0
00:01:26:832,-260,-480,14876,-160,81,-120,0
00:01:27:085,-324,-336,14988,-160,39,-129,0
00:01:27:337,-328,-352,15072,-154,75,-142,0
00:01:27:589,-252,-368,14984,-164,81,-144,0
00:01:27:841,-340,-368,14980,-159,67,-130,0
00:01:28:093,-248,-392,14992,-157,70,-96,0
00:01:28:345,-392,-300,14916,-167,67,-86,0
00:01:28:599,-304,-436,15008,-170,34,-116,0
00:01:28:851,-396,-484,14936,-129,75,-111,0
00:01:29:103,-276,-284,15032,-137,67,-128,0
00:01:29:355,-292,-328,14976,-136,61,-131,0
00:01:29:607,-320,-360,15036,-169,56,-94,0
00:01:29:860,-384,-240,14896,-155,61,-117,0
00:01:30:112,-296,-344,14884,-169,60,-98,0
00:01:30:364,-304,-364,15032,-156,75,-96,0
00:01:30:617,-304,-364,14920,-149,97,-122,0
00:01:30:869,-308,-308,14988,-137,64,-114,0
00:01:31:122,-348,-424,14928,-155,55,-112,0
00:01:31:374,-300,-252,15040,-168,80,-124,0
00:01:31:626,-396,-300,14888,-139,62,-115,0
00:01:31:879,-312,-356,15036,-148,55,-130,0
00:01:32:131,-260,-320,14932,-150,62,-115,0
00:01:32:384,-324,-280,15040,-160,78,-114,0
00:01:32:636,-332,-340,14956,-164,78,-122,0
00:01:32:888,-348,-324,15056,-149,42,-100,0
00:01:33:140,-344,-420,15064,-146,75,-119,0
00:01:33:393,-284,-304,14892,-151,73,-141,0
00:01:33:645,-264,-420,14964,-147,99,-121,0
00:01:33:897,-364,-272,15016,-157,89,-104,0
00:01:34:149,-332,-384,15036,-153,66,-112,0
00:01:34:402,-312,-340,15016,-166,54,-135,0
00:01:34:654,-392,-272,15028,-172,81,-130,0
00:01:34:906,-348,-376,14984,-151,73,-135,0
00:01:35:159,-252,-368,15008,-155,75,-117,0
00:01:35:411,-236,-384,14864,-170,87,-123,0
00:01:35:663,-308,-416,14832,-153,83,-132,0
00:01:35:916,-312,-332,15108,-162,79,-108,0
00:01:36:168,-252,-372,15196,-137,70,-124,0
00:01:36:420,-320,-428,15104,-151,49,-120,0
00:01:36:673,-260,-400,15012,-146,74,-114,0
00:01:36:925,-224,-300,14960,-159,63,-117,0
00:01:37:177,-192,-288,14884,-157,83,-118,0
00:01:37:430,-260,-420,15000,-155,58,-120,0
00:01:37:682,-260,-308,15000,-148,72,-122,0
00:01:37:934,-260,-320,15032,-159,84,-126,0
00:01:38:187,-324,-444,15060,-170,93,-123,0
00:01:38:439,-360,-448,15060,-168,56,-110,0
00:01:38:690,-216,-324,14904,-163,63,-91,0
00:01:38:944,-316,-352,15128,-163,54,-108,0
00:01:39:196,-356,-296,15080,-150,53,-119,0
00:01:39:448,-344,-380,15056,-143,68,-135,0
00:01:39:701,668,180,13120,-689,-221,-169,0
00:01:39:953,-268,-816,18600,231,-650,-63,1
00:01:40:204,-328,-628,16452,57,148,-100,0
00:01:40:457,-224,-492,16048,-68,58,-129,0
00:01:40:710,-144,-384,15148,-111,66,-145,0
00:01:40:961,-80,148,10120,-205,549,-118,0
00:01:41:213,560,-60,14900,87,-198,-141,0
00:01:41:467,-100,-624,14588,-213,351,-38,0
00:01:41:720,-300,-364,14436,-166,145,-116,0
00:01:41:972,-332,-320,14664,-186,21,-115,0
00:01:42:224,-372,-332,14920,-169,30,-140,0
00:01:42:476,-388,-384,14964,-173,57,-129,0
00:01:42:729,-340,-340,15016,-169,71,-114,0
00:01:42:981,-392,-340,15096,-159,89,-112,0
00:01:43:234,-372,-416,14960,-157,61,-115,0
00:01:43:486,-340,-392,15024,-154,84,-127,0
00:01:43:738,-324,-388,14840,-135,79,-107,0
00:01:43:991,-376,-348,15060,-144,58,-131,0
00:01:44:243,-356,-420,14856,-163,79,-135,0
00:01:44:495,-392,-404,14940,-151,34,-118,0
00:01:44:748,-336,-308,15104,-150,57,-110,0
00:01:44:999,-328,-296,14956,-164,84,-99,0
00:01:45:252,-308,-364,14868,-151,75,-123,0
00:01:45:504,-276,-380,14796,-172,66,-122,0
00:01:45:757,-252,-252,15048,-178,72,-116,0
00:01:46:009,-336,-320,14884,-188,61,-115,0
00:01:46:262,-260,-328,14824,-151,70,-143,0
00:01:46:514,-316,-272,14920,-160,42,-123,0
00:01:46:766,-412,-368,14760,-158,97,-138,0
00:01:47:017,-1268,3708,8296,61,660,-120,0
00:01:47:275,-4496,-1116,4068,-1772,-224,-131,1
00:01:47:524,1136,4156,-9456,-1953,400,-80,1
00:01:47:779,-6396,-940,32767,-2065,-84,-232,0
00:01:48:032,3688,9076,-6624,-2601,-1719,-179,1
00:01:48:284,-1368,7912,-18444,-1933,-70,-121,1
00:01:48:532,-2072,4116,8464,339,-608,-40,0
00:01:48:785,-944,-1344,16856,446,-999,33,0
00:01:49:041,-1404,1208,32767,-1329,-302,-146,1
00:01:49:292,-2296,-1500,14828,372,-1003,-4,0
00:01:49:545,-840,5156,-24188,-838,1706,-214,1
00:01:49:794,2824,5364,14900,-819,248,-41,0
00:01:50:048,2460,1600,20520,1660,-1400,96,1
00:01:50:302,160,-10936,32767,1633,2370,-249,1
00:01:50:555,-6200,-3492,13632,511,-2081,-210,1
00:01:50:808,1760,11840,-15176,-757,4299,-247,1
00:01:51:057,3296,-3032,21552,1690,435,-11,1
00:01:51:312,-1396,-2484,16148,1343,1618,-171,1
00:01:51:563,3400,1544,12476,-307,2863,-302,0
00:01:51:814,2124,-756,16352,-354,584,-130,1
00:01:52:063,-244,-44,13928,142,-1747,0,0
00:01:52:321,2652,-1072,18776,-414,1456,-218,1
00:01:52:571,-176,-716,15548,-223,-14,-109,0
00:01:52:823,-204,-176,15144,-158,292,-150,1
00:01:53:074,-244,-444,14752,-147,44,-105,0
00:01:53:327,-80,-1144,16068,-184,77,-114,0
00:01:53:579,-204,-536,16080,-167,62,-112,0
00:01:53:832,-156,-800,15416,-145,81,-105,0
00:01:54:083,-96,-636,14956,-121,80,-145,0
00:01:54:336,-216,-352,15108,-101,63,-105,0
00:01:54:588,-628,536,14004,-159,127,-116,1
00:01:54:842,-316,-292,14468,-179,-25,-118,0
00:01:55:094,-168,-444,15068,-124,74,-118,0
00:01:55:346,-244,-156,14688,-194,86,-121,0
00:01:55:598,-196,-364,15032,-150,71,-120,0
00:01:55:850,-100,-484,15164,-145,67,-118,0
00:01:56:103,-112,-296,15024,-137,131,-133,0
00:01:56:355,-208,-268,14996,-159,45,-109,0
00:01:56:608,-116,-412,14892,-144,74,-123,0
00:01:56:860,-364,-508,15028,-115,58,-116,0
00:01:57:112,-108,-404,15056,-164,90,-122,0
00:01:57:364,-296,-316,14968,-145,82,-105,0
00:01:57:617,-176,-308,15008,-157,80,-130,0
00:01:57:869,-148,-324,15168,-147,72,-119,0
00:01:58:121,-240,-228,14904,-166,86,-152,0
00:01:58:374,-172,-400,14956,-136,61,-137,0
00:01:58:626,-224,-396,15148,-174,65,-121,0
00:01:58:879,-348,-420,15108,-157,34,-121,0
00:01:59:131,-232,-284,14860,-161,80,-124,0
00:01:59:383,-260,-384,14976,-148,41,-144,0
00:01:59:635,-224,-308,14972,-149,50,-118,0
00:01:59:888,-188,-332,15028,-139,79,-137,0
00:02:00:140,-276,-304,14932,-152,62,-111,0
00:02:00:391,-260,-344,14952,-148,62,-95,0
00:02:00:645,-228,-360,14932,-172,70,-112,0
00:02:00:897,-184,-344,15056,-172,71,-112,0
00:02:01:149,-112,-360,14968,-159,26,-115,0
00:02:01:402,-216,-360,15020,-153,66,-130,0
00:02:01:654,-216,-360,14912,-159,80,-128,0
00:02:01:906,-208,-388,14972,-175,58,-130,0
00:02:02:159,-196,-412,15072,-150,83,-114,0
00:02:02:411,-248,-408,15224,-154,66,-104,0
00:02:02:663,-204,-348,15088,-167,71,-127,0
00:02:02:916,-248,-344,14980,-151,67,-109,0
00:02:03:168,-244,-512,15040,-132,86,-132,0
00:02:03:420,-272,-412,15048,-154,63,-129,0
00:02:03:673,-168,-352,15104,-155,62,-112,0
00:02:03:925,-220,-276,15044,-164,77,-117,0
00:02:04:177,-196,-464,14964,-148,82,-131,0
00:02:04:430,-172,-300,14952,-148,61,-131,0
00:02:04:682,-136,-348,15068,-174,64,-121,0
00:02:04:934,-164,-524,14948,-115,47,-126,0
00:02:05:187,-192,-304,15032,-148,34,-110,0
00:02:05:439,-132,-332,14948,-175,81,-113,0
00:02:05:691,-168,-412,15124,-160,60,-127,0
00:02:05:944,-296,-416,14852,-156,52,-103,0
00:02:06:196,-144,-388,14984,-157,64,-127,0
00:02:06:448,-188,-376,14908,-164,67,-133,0
00:02:06:701,-188,-264,14836,-156,76,-132,0
00:02:06:953,-192,-320,14972,-162,79,-111,0
00:02:07:205,-212,-332,14856,-181,36,-144,0
00:02:07:457,-108,-368,15116,-140,41,-115,0
00:02:07:710,-212,-376,14988,-161,50,-126,0
00:02:07:962,-160,-384,15024,-177,80,-111,0
00:02:08:214,-184,-336,15008,-173,67,-115,0
00:02:08:466,-184,-372,15016,-141,67,-82,0
00:02:08:719,-268,-348,14960,-156,81,-139,0
00:02:08:971,-144,-184,14840,-158,58,-108,0
00:02:09:224,-236,-396,15028,-133,57,-120,0
00:02:09:476,-140,-368,15104,-147,70,-138,0
00:02:09:728,-252,-340,15040,-174,58,-121,0
00:02:09:981,-248,-424,14836,-161,73,-123,0
00:02:10:234,-200,-344,14944,-139,37,-124,0
00:02:10:485,-84,-400,15180,-157,38,-115,0
00:02:10:738,-148,-352,14892,-152,89,-139,0
00:02:10:988,44,-176,13672,-71,260,-109,0
00:02:11:244,-116,-116,15028,-267,254,-146,0
00:02:11:493,352,3472,22996,579,942,-73,0
00:02:11:749,1144,1408,24048,1296,1072,-45,1
00:02:12:000,4980,372,19656,-753,510,-218,1
00:02:12:252,-3004,80,32767,546,2343,-230,1
00:02:12:504,1552,-96,9932,1036,-4695,277,1
00:02:12:761,-3120,8912,2804,-5473,-1071,-205,0
00:02:13:012,10872,-6764,7916,-718,3500,-386,1
00:02:13:259,-3768,212,4864,74,2577,-89,1
00:02:13:516,476,-5124,19120,-448,2198,-229,1
00:02:13:767,1572,5956,-18264,1268,1829,19,1
00:02:14:015,84,5216,19404,15,972,-136,0
00:02:14:272,1876,-6732,16812,1811,974,-94,1
00:02:14:526,-2684,-5068,31796,-608,323,-266,1
00:02:14:776,-2536,3508,4984,-2186,938,-69,0
00:02:15:030,5148,4100,-28576,170,1704,-239,1
00:02:15:282,2836,-664,12764,-721,1449,-193,0
00:02:15:530,-976,-572,16220,978,44,-74,0
00:02:15:786,528,2456,24428,-211,2607,-324,1
00:02:16:040,9644,-6228,28320,1891,-1773,153,1
00:02:16:291,1380,892,18428,-3855,-1487,-64,1
00:02:16:540,1628,1964,23948,580,326,76,1
00:02:16:797,5948,8172,-27160,2363,1894,-232,1
00:02:17:050,4448,-1168,23692,1958,5144,-107,1
00:02:17:300,-1540,1936,3608,-788,100,-183,1
00:02:17:552,-384,-1188,14068,1015,489,-94,0
00:02:17:803,228,-2012,19444,-283,561,-39,0
00:02:18:057,-288,-760,17972,-125,794,-106,1
00:02:18:309,-340,-376,14200,-164,234,-138,1
00:02:18:561,-332,-384,15268,-161,-48,-119,0
00:02:18:813,-132,-324,15084,-90,-32,-105,0
00:02:19:067,-196,-1112,11748,-557,892,-143,1
00:02:19:318,100,-916,19136,-423,-942,-159,1
00:02:19:570,-152,-628,16940,-207,48,-168,0
00:02:19:822,-92,-540,15520,-173,-51,-123,0
00:02:20:075,-140,-436,15144,-175,157,-108,0
00:02:20:324,-704,260,12532,-261,557,17,0
00:02:20:580,-236,-540,14604,-39,-526,-186,0
00:02:20:831,-68,-216,14956,-187,303,-135,0
00:02:21:085,-320,-264,15752,-85,-111,-164,0
00:02:21:337,-188,-348,14852,-121,128,-114,0
00:02:21:590,-360,-720,15216,-146,-120,-100,0
00:02:21:841,-520,-176,14432,-157,84,-135,0
00:02:22:093,-288,-404,14684,-128,56,-140,0
00:02:22:346,-212,-300,14792,-152,-16,-119,0
00:02:22:597,-356,-288,14960,-169,89,-104,0
00:02:22:850,-264,-392,15016,-160,20,-121,0
00:02:23:102,-268,-408,15044,-157,32,-109,0
00:02:23:355,-272,-372,14968,-169,71,-120,0
00:02:23:607,-288,-420,14860,-146,72,-103,0
00:02:23:860,-288,-428,14976,-151,85,-131,0
00:02:24:112,-296,-304,14940,-203,61,-136,0
00:02:24:364,-376,-360,15160,-134,77,-132,0
00:02:24:617,-344,-440,14976,-179,53,-128,0
00:02:24:869,-228,-260,14908,-136,58,-135,0
00:02:25:121,-304,-372,15124,-165,39,-131,0
00:02:25:374,-300,-436,15020,-165,55,-148,0
00:02:25:626,-284,-256,15020,-150,81,-122,0
00:02:25:878,-244,-388,15080,-156,71,-137,0
00:02:26:132,-316,-444,15028,-178,111,-122,0
00:02:26:383,-340,-264,14864,-155,32,-132,0
00:02:26:635,-232,-356,14912,-165,65,-119,0
00:02:26:886,-312,-256,15016,-169,70,-95,0
00:02:27:140,-348,-352,15000,-127,63,-117,0
00:02:27:392,-264,-252,15092,-151,79,-106,0
00:02:27:644,-268,-392,14888,-166,81,-114,0
00:02:27:896,-156,-360,15104,-129,5,-132,0
00:02:28:149,-312,-480,15128,-144,67,-121,0
00:02:28:401,-304,-108,14488,-229,91,-120,0
00:02:28:659,-3000,-1212,17332,-1374,-639,-124,0
00:02:28:909,10776,6324,10936,-1182,994,-109,1
00:02:29:164,1252,-10476,23256,2062,-2071,-216,1
00:02:29:413,-3224,11544,-6400,871,357,-218,1
00:02:29:663,-104,5284,760,-1395,-967,-89,1
00:02:29:915,2300,-6996,16552,81,1169,-31,1
00:02:30:168,9676,-1820,5836,-270,1293,19,1
00:02:30:421,-80,-5456,15148,282,-1070,-43,0
00:02:30:673,2704,-1328,18500,358,959,-104,0
00:02:30:929,-1120,-1780,19756,-868,1240,-359,1
00:02:31:180,-5664,-5192,32767,-139,-2960,20,1
00:02:31:432,-3020,-3960,32767,719,600,-166,1
00:02:31:684,3924,5284,-17528,211,2289,-231,1
00:02:31:937,2168,-3964,26632,2400,1364,-215,0
00:02:32:185,2120,1228,5860,448,565,-185,1
00:02:32:442,-1100,4668,-392,-293,-1365,-106,1
00:02:32:694,-4016,-9720,32767,1678,436,-149,1
00:02:32:945,-2740,-64,-384,-1684,2470,-403,1
00:02:33:199,8864,-2084,6708,-3368,1449,-333,1
00:02:33:449,924,704,13172,-1254,-1065,-35,0
00:02:33:701,2032,-164,26816,-103,606,-145,1
00:02:33:955,-56,-1028,15092,-1021,283,-173,1
00:02:34:207,-220,-1196,15160,-204,115,-104,0
00:02:34:456,-220,-548,15180,-67,54,-127,0
00:02:34:710,-184,-248,14892,-170,62,-119,1
00:02:34:961,-32,-944,14704,-196,57,-107,0
00:02:35:214,-152,-528,14804,-134,65,-121,0
00:02:35:467,-156,-432,15168,-136,70,-103,0
00:02:35:719,-216,-324,14828,-170,56,-116,1
00:02:35:971,-248,-408,15064,-153,50,-145,0
00:02:36:224,-112,-424,14952,-160,74,-121,0
00:02:36:476,-228,-144,15152,-164,57,-134,0
00:02:36:729,-200,-356,14860,-148,52,-106,0
00:02:36:981,-172,-252,15144,-140,73,-125,0
00:02:37:233,-144,-272,14828,-152,52,-108,0
00:02:37:486,-212,-460,14980,-150,61,-146,0
00:02:37:738,-164,-404,15096,-161,73,-114,0
00:02:37:990,-132,-348,15044,-164,72,-106,0
00:02:38:243,-156,-296,15060,-181,62,-126,0
00:02:38:495,-140,-316,15072,-163,44,-134,0
00:02:38:747,-204,-372,15104,-153,61,-130,0
00:02:39:000,-116,-364,15048,-170,69,-111,0
00:02:39:252,-220,-448,15080,-170,62,-116,0
00:02:39:504,-116,-360,14984,-162,70,-120,0
00:02:39:757,-108,-380,15016,-159,62,-113,0
00:02:40:009,-192,-380,15060,-140,74,-129,0
00:02:40:261,-184,-388,15048,-155,63,-114,0
00:02:40:513,-232,-320,15004,-171,64,-99,0
00:02:40:766,-180,-272,14976,-147,78,-140,0
00:02:41:018,-140,-420,15040,-144,80,-106,0
00:02:41:273,-240,-1464,15604,1194,-312,-69,0
00:02:41:525,-2504,-4108,25632,563,457,-156,0
00:02:41:776,1988,3428,7896,-248,1827,-213,0
00:02:42:029,1516,-436,22532,-129,343,-161,0
00:02:42:280,-588,484,12720,-335,-246,-62,0
00:02:42:533,600,-308,14796,-343,-260,-141,0
00:02:42:785,-368,-288,15116,-217,28,-129,0
00:02:43:038,-204,-244,15068,-133,156,-130,0
00:02:43:289,-216,-448,14984,-145,49,-117,0
00:02:43:541,-192,-452,15012,-142,92,-113,0
00:02:43:794,-132,-404,14912,-155,37,-111,0
00:02:44:044,112,120,13500,-49,125,-124,0
00:02:44:300,-248,-396,13876,-174,124,-103,0
00:02:44:553,-1328,-1736,19552,-530,-773,27,0
00:02:44:803,196,-140,27364,-1277,848,-92,1
00:02:45:059,1584,-2492,28076,-284,-338,-171,1
00:02:45:307,-376,-232,17376,72,-19,-136,1
00:02:45:557,-8,-172,14588,-112,52,-93,1
00:02:45:813,-328,-196,14896,-149,36,-124,0
00:02:46:065,-200,-208,15112,-185,85,-130,0
00:02:46:317,-180,-268,14964,-155,63,-100,0
00:02:46:570,-4092,-1376,16236,580,-1070,2,0
00:02:46:820,-60,-340,15388,-105,6,-127,1
00:02:47:073,-164,-144,14800,-81,83,-124,1
00:02:47:326,-196,-2020,22696,324,475,-79,0
00:02:47:581,-1164,-2032,18424,595,-314,-44,0
00:02:47:832,-376,-244,13404,-257,-85,-106,0
00:02:48:083,1144,964,10384,-387,329,-153,0
00:02:48:336,452,-284,12864,-294,310,-142,1
00:02:48:589,-528,-760,12440,-464,345,-151,0
00:02:48:839,872,1132,9968,-209,404,-127,0
00:02:49:095,-1040,-712,16924,-376,-88,-155,0
00:02:49:347,-280,-828,16560,-149,-184,-117,0
00:02:49:599,-544,-488,14384,-423,-283,-163,0
00:02:49:850,-436,-2372,18452,19,616,-151,0
00:02:50:101,-500,-32,14892,-101,-2,-142,0
00:02:50:355,-6900,556,22552,-986,-411,-34,1
00:02:50:608,684,1248,10608,-359,-231,-101,0
00:02:50:860,184,-1956,12940,-117,488,-202,0
00:02:51:112,-2108,572,11700,-1102,29,-208,1
00:02:51:364,2628,-1448,18120,39,131,-100,0
00:02:51:616,-176,-460,14688,244,-415,-42,0
00:02:51:866,56,-96,13564,-274,175,-140,0
00:02:52:122,-1400,-828,16516,371,-266,-97,0
00:02:52:374,-276,-660,15692,-196,-46,-103,0
00:02:52:625,64,-1360,19556,-696,-71,-162,0
00:02:52:877,828,840,14224,-331,-91,-142,0
00:02:53:127,-444,56,13784,97,-273,-84,0
00:02:53:382,684,-532,14780,-407,100,-148,0
00:02:53:632,-400,0,12196,-116,109,-111,0
00:02:53:885,-60,224,15204,-71,403,-121,0
00:02:54:141,-120,-856,17740,-156,-191,-135,0
00:02:54:391,-108,68,13164,-329,375,-147,0
00:02:54:643,-504,-872,14432,-27,138,-92,0
00:02:54:897,-176,-460,17128,-38,-859,-100,1
00:02:55:149,-756,-440,16976,204,-437,-70,0
00:02:55:403,-1412,-2180,21320,449,466,-114,0
00:02:55:653,-240,-780,15428,-17,106,-101,0
00:02:55:908,-320,-188,15468,-193,-199,-127,0
00:02:56:157,624,-548,14252,-398,83,-137,0
00:02:56:410,1744,-76,15524,-210,745,-189,0
00:02:56:661,156,224,14684,-388,208,-111,0
00:02:56:911,16,-4,14844,-126,90,-110,0
00:02:57:166,588,-96,14812,-149,171,-138,0
00:02:57:420,-1448,-1260,15632,-99,144,-86,0
00:02:57:671,-512,-436,15844,191,52,-152,0
00:02:57:925,-948,872,11284,-217,-527,-118,0
00:02:58:176,6956,2756,2496,486,1733,-115,1
00:02:58:429,-108,-648,18012,-377,58,-161,0
00:02:58:682,-144,-2412,15620,753,-145,-80,0
00:02:58:934,204,-340,15536,-172,237,-108,0
00:02:59:187,-188,-760,15132,-150,105,-128,0
00:02:59:437,960,368,15232,-414,476,-147,0
00:02:59:693,3512,-1184,19716,-740,-176,-181,0
00:02:59:939,3032,440,12500,131,1,-38,1
00:03:00:196,-556,148,14776,-1152,473,-144,0
00:03:00:447,-60,-292,16136,-133,-212,-83,0
00:03:00:701,-648,-452,16104,-272,-529,-65,0
00:03:00:951,-872,-212,19948,46,-408,-89,0
00:03:01:202,-944,432,13516,289,312,-99,0
00:03:01:455,1988,564,3628,-651,83,-200,0
00:03:01:711,1188,2076,10444,-1477,593,-255,0
00:03:01:962,1956,-312,17528,-678,854,-185,0
00:03:02:214,1416,-1552,15960,26,292,-100,0
00:03:02:464,2648,-2728,25536,508,4,-84,0
00:03:02:723,-2428,-1004,24532,-1386,644,-313,0
00:03:02:970,-280,-192,15336,-59,-51,-83,0
00:03:03:223,-156,-256,14556,-155,97,-125,0
00:03:03:472,-8,-24,13320,-337,95,-132,0
00:03:03:724,-280,12,12980,-22,95,-108,0
00:03:03:981,252,-1088,15896,-233,-53,-106,0
00:03:04:232,-1480,-48,15580,-170,-7,-113,0
00:03:04:486,1144,2036,11764,-1158,72,-176,0
00:03:04:737,-420,204,14580,113,-251,-106,0
00:03:04:988,-368,-620,15640,-31,53,-109,0
00:03:05:243,-5204,-1180,14372,232,-146,-8,0
00:03:05:495,2336,-204,15548,-294,-206,-86,0
00:03:05:747,116,1688,11676,-1113,757,-198,1
00:03:05:998,16,-764,16132,-475,816,-181,0
00:03:06:251,156,-552,19780,-626,676,-131,1
00:03:06:503,2752,-1160,13352,25,279,-175,0
00:03:06:751,12,-84,12876,211,214,-74,0
00:03:07:011,-2456,-2872,25040,1490,-122,-22,0
00:03:07:261,-1580,244,7460,-782,-328,-184,0
00:03:07:512,700,-688,18808,-756,172,-154,0
00:03:07:763,-196,-540,13848,32,99,-119,0
00:03:08:017,-44,-368,15972,-103,185,-104,1
00:03:08:269,-264,-264,15000,-147,36,-101,1
00:03:08:521,-592,-208,14640,-328,21,-97,0
00:03:08:771,364,184,13364,17,154,-167,0
00:03:09:026,428,376,12388,-1260,321,-217,1
00:03:09:279,460,-672,12636,-459,271,-168,1
00:03:09:531,-944,-948,15060,550,-869,-25,0
00:03:09:783,1972,2876,10016,-1768,0,-179,0
00:03:10:035,380,-332,14808,-53,451,-134,0
00:03:10:287,-988,440,9816,-183,197,-138,0
00:03:10:540,-116,12,13116,-193,-437,-116,0
00:03:10:794,-1332,1664,20048,131,-587,-11,0
00:03:11:048,-2532,-3304,24228,-560,734,-256,0
00:03:11:296,-1716,-816,15072,8,-108,-93,0
00:03:11:550,820,-1032,16540,369,799,-128,0
00:03:11:802,164,-2548,17236,805,-117,-50,1
00:03:12:057,-468,-2300,20496,-689,-84,-100,0
00:03:12:306,-1284,-144,11780,446,22,-73,0
00:03:12:560,576,-1376,16848,-374,101,-146,0
00:03:12:813,-632,-776,15300,-176,-155,-113,0
00:03:13:065,1852,-1640,18100,-53,211,-148,0
00:03:13:317,1928,-2608,21816,668,502,-129,0
00:03:13:568,-160,-44,14364,-207,93,-133,0
00:03:13:822,-320,-220,14552,-172,-75,-101,0
00:03:14:071,1204,-256,19480,77,162,-88,0
00:03:14:325,320,-856,15820,-493,347,-153,0
00:03:14:580,-1636,-924,14104,-193,-197,-83,0
00:03:14:833,-1592,-1884,17076,-636,461,-202,0
00:03:15:084,-608,-3376,22660,-242,-596,-76,1
00:03:15:334,768,892,6496,-763,-259,-169,0
00:03:15:586,-984,-72,12976,-286,39,-134,0
00:03:15:839,-572,-508,14396,-136,-72,-99,0
00:03:16:091,24,-600,15172,-184,116,-150,0
00:03:16:342,-492,24,14008,-330,54,-113,0
00:03:16:593,1832,536,11328,71,312,-60,1
00:03:16:851,-1796,-2732,17076,893,-1544,44,0
00:03:17:101,1560,-2856,28240,615,-72,-54,0
00:03:17:354,-1756,-688,22308,-75,-178,-99,0
00:03:17:609,-5660,-2448,16832,207,-995,-116,0
00:03:17:860,-540,-324,16744,-281,-168,-105,0
00:03:18:111,-3048,-76,16956,-613,425,-185,0
00:03:18:366,-2432,-2304,19596,1016,-1096,19,0
00:03:18:615,2488,-924,15088,-80,216,-175,1
00:03:18:868,2180,692,19176,-1811,-953,-28,0
00:03:19:122,-3712,-840,14552,1030,-1873,93,0
00:03:19:372,516,-2356,20044,23,-229,-128,1
00:03:19:627,760,-3908,26200,-3386,1511,-513,1
00:03:19:878,-5788,-996,16940,-256,226,-32,0
00:03:20:130,3020,-7480,32767,2408,-431,89,1
00:03:20:381,-1984,-236,22560,756,159,-62,0
00:03:20:634,-248,-940,13092,-89,-178,-116,1
00:03:20:882,80,76,14504,-36,171,-114,1
00:03:21:138,992,-260,10888,-281,389,-189,0
00:03:21:393,3704,-444,16676,-1227,462,-389,0
00:03:21:647,-1152,-1812,21032,-697,-272,-139,0
00:03:21:896,-920,204,16408,-935,-936,-129,0
00:03:22:149,1912,356,15004,-979,1199,-218,1
00:03:22:401,-3944,2488,7928,384,-555,-185,0
00:03:22:655,2260,-4656,19684,1139,-349,-142,1
00:03:22:903,-3052,-68,844,-256,492,-90,0
00:03:23:160,-3588,-4868,26952,339,-1602,-29,0
00:03:23:410,-1232,108,14732,-751,385,-187,0
00:03:23:662,-316,-2764,24572,156,-74,-88,0
00:03:23:914,516,-3296,14904,781,346,-115,0
00:03:24:165,1128,148,15884,-70,560,-137,0
00:03:24:421,3268,-3108,21728,-516,742,-278,1
00:03:24:671,-964,-920,14252,651,-323,-51,1
00:03:24:925,4212,-1184,25716,-710,348,-170,0
00:03:25:176,4768,-1888,18576,864,302,-71,0
00:03:25:430,1028,1016,12428,-304,-533,-165,0
00:03:25:679,1764,776,20420,199,459,-104,1
00:03:25:935,3608,-304,16348,-1574,169,-237,0
00:03:26:187,-1368,-852,16244,-311,-41,-105,0
00:03:26:437,1080,612,12372,-636,155,-136,0
00:03:26:690,1044,-752,23948,-962,-45,-158,0
00:03:26:944,124,-1364,22572,-227,1089,-218,0
00:03:27:194,-1040,928,2456,780,-996,-104,0
00:03:27:449,7400,3668,6928,-1723,1154,-293,1
00:03:27:697,-5296,1628,468,0,-596,-100,0
00:03:27:953,2584,-3252,22316,682,1012,-160,0
00:03:28:205,-2248,1636,4464,-306,-1743,-43,1
00:03:28:458,708,2564,16756,-1792,1309,-210,1
00:03:28:707,1284,1536,10528,75,501,-138,0
00:03:28:961,-312,-564,14496,328,-205,-54,1
00:03:29:206,72,-240,15420,3,45,-87,0
00:03:29:462,-44,580,12312,132,52,-100,0
00:03:29:716,1536,-852,18388,86,-271,-38,0
00:03:29:971,-264,652,21240,-902,-472,-221,0
00:03:30:224,2804,-3320,18652,544,-199,-181,0
00:03:30:478,3908,2244,14756,-1070,1089,-198,1
00:03:30:726,-1576,-624,19716,2,151,-114,0
00:03:30:980,-2328,1396,15868,178,449,-112,0
00:03:31:232,1668,-2572,20016,786,893,-182,0
00:03:31:485,-252,4860,12084,-297,150,-147,0
00:03:31:739,-1420,-1300,15912,-641,454,-140,0
00:03:31:990,1204,-912,17304,-915,-337,-159,0
00:03:32:241,-608,68,11452,-576,-632,-102,0
00:03:32:489,-60,-100,15228,-4,11,-91,0
00:03:32:745,-180,212,13440,-650,259,-178,0
00:03:32:995,1424,28,18144,-504,36,-39,0
00:03:33:248,104,-180,12752,265,500,-88,0
00:03:33:505,-2904,2064,20600,-749,-428,-143,0
00:03:33:758,-320,-3452,20972,-1510,165,-179,0
00:03:34:008,-2052,-1012,21240,-5,-88,-126,1
00:03:34:259,2960,2876,17364,33,1678,-173,0
00:03:34:514,-1660,4048,11236,-283,-563,-19,1
00:03:34:763,-2440,140,29984,461,468,-24,0
00:03:35:018,-408,244,15656,-1098,-1148,-77,0
00:03:35:271,-4260,-40,14584,-505,-491,-122,0
00:03:35:519,-424,8,14908,-210,161,-136,0
00:03:35:773,-496,-96,15040,-229,233,-108,0
00:03:36:026,-288,-348,14660,-197,73,-113,0
00:03:36:279,-192,-280,14976,-200,110,-120,0
00:03:36:530,-216,-336,15248,-164,97,-118,0
00:03:36:782,-200,-364,14996,-151,75,-129,0
00:03:37:035,-160,-272,15140,-135,57,-128,0
00:03:37:287,-196,-392,14936,-147,57,-143,0
00:03:37:538,-40,-336,15032,-149,70,-121,0
00:03:37:792,-132,-240,15052,-178,51,-137,0
00:03:38:044,-228,-388,14936,-154,61,-131,0
00:03:38:296,-208,-284,15092,-171,60,-108,0
00:03:38:549,-160,-376,15052,-143,58,-117,0
00:03:38:801,-216,-292,15156,-153,77,-110,0
00:03:39:053,-272,-300,14912,-155,47,-103,0
00:03:39:306,-168,-276,15072,-156,87,-129,0
00:03:39:558,-216,-280,14964,-151,76,-110,0
00:03:39:809,-92,-320,14952,-167,47,-101,0
00:03:40:063,-360,-288,14968,-168,53,-128,0
00:03:40:315,-208,-344,15192,-151,70,-123,0
00:03:40:568,-268,-304,15136,-155,81,-127,0
00:03:40:820,-244,-316,14884,-149,74,-110,0
00:03:41:072,-160,-316,14968,-165,90,-120,0
00:03:41:325,-196,-400,15044,-141,74,-109,0
00:03:41:577,-168,-336,14996,-145,77,-113,0
00:03:41:829,-196,-296,14816,-143,64,-149,0
00:03:42:082,-168,-360,15020,-131,73,-125,0
00:03:42:332,-96,-380,14944,-153,54,-96,0
00:03:42:586,-204,-352,15028,-138,82,-135,0
00:03:42:839,-168,-400,14932,-171,64,-111,0
00:03:43:091,-188,-324,15032,-160,53,-121,0
00:03:43:343,-116,-312,14952,-136,60,-120,0
00:03:43:596,-140,-428,15080,-155,59,-125,0
00:03:43:848,-112,-432,14884,-159,70,-120,0
00:03:44:100,-260,-292,14940,-155,67,-104,0
00:03:44:353,-100,-288,14960,-159,71,-111,0
00:03:44:605,-268,-300,15044,-169,73,-113,0
00:03:44:857,-176,-336,15032,-148,81,-124,0
00:03:45:110,-140,-320,15076,-152,82,-120,0
00:03:45:362,-180,-316,14992,-169,86,-132,0
00:03:45:614,-280,-388,14936,-169,43,-129,0
00:03:45:868,-212,-380,15060,-162,63,-140,0
00:03:46:119,-196,-332,14900,-140,70,-123,0
00:03:46:371,-276,-348,15124,-170,61,-118,0
00:03:46:623,-192,-288,14808,42,166,-112,1
00:03:46:877,-324,-444,15108,-251,169,-109,0
00:03:47:129,-420,-1796,22920,503,-166,-70,0
00:03:47:380,5004,-932,9828,-45,479,-155,0
00:03:47:632,308,1160,9232,1068,-156,-80,0
00:03:47:885,220,-624,15544,-341,150,-119,0
00:03:48:141,2744,-1812,25296,-623,-126,-162,1
00:03:48:392,-1852,-340,13796,-237,634,-152,0
00:03:48:644,-1852,-2184,26628,288,188,-114,1
00:03:48:895,272,-5000,27048,468,191,-146,0
00:03:49:148,-2844,4628,-976,-195,-58,-114,0
00:03:49:401,620,-1144,20884,-486,-543,-104,1
00:03:49:653,3232,740,16672,-626,1319,-201,1
00:03:49:903,844,364,14768,-410,185,-116,0
00:03:50:154,32,-392,14152,-59,126,-120,0
00:03:50:409,1152,2004,10240,-455,147,-150,0
00:03:50:663,-3852,-2972,21860,1224,205,-69,0
00:03:50:912,-1580,-168,9608,46,278,-129,0
00:03:51:168,-1588,-1496,18244,1059,360,-83,0
00:03:51:420,-2192,1212,13168,-688,127,-130,0
00:03:51:667,424,1020,12696,234,84,-90,0
00:03:51:925,-120,-2676,30812,106,-1259,-76,1
00:03:52:177,2596,2908,11048,-1667,560,-214,1
00:03:52:429,-100,-1800,15016,-488,-108,-92,0
00:03:52:683,-1296,2140,23028,-839,-462,-149,1
00:03:52:936,-5656,-696,16344,-300,-1231,-105,0
00:03:53:179,72,404,15244,-6,-95,-54,0
00:03:53:436,-132,-148,14380,-149,70,-109,1
00:03:53:692,-1304,-1596,15868,-455,35,-190,0
00:03:53:944,-5120,-796,25828,-223,-251,-130,0
00:03:54:194,704,1536,14788,-809,-402,-111,0
00:03:54:447,-60,-1704,19708,-482,-248,-81,0
00:03:54:702,-1616,2916,7176,-1836,-140,-186,1
00:03:54:951,-620,-4,19464,-110,-286,-160,0
00:03:55:199,580,660,8964,163,307,-98,0
00:03:55:458,-1052,-3720,19796,1095,511,-51,0
00:03:55:704,572,2500,6656,1,352,-105,0
00:03:55:960,1244,828,13900,-478,-96,-101,1
00:03:56:212,-484,676,10544,-564,379,-153,0
00:03:56:465,-476,-224,15856,154,-128,-95,0
00:03:56:719,-740,-1108,16904,-191,198,-140,0
00:03:56:968,776,500,10252,-419,153,-137,0
00:03:57:220,972,804,3716,-406,436,-161,0
00:03:57:473,-212,356,13484,238,325,-109,0
00:03:57:727,-2972,2984,12388,-41,-181,-96,1
00:03:57:979,-288,3452,11624,-1128,50,-113,0
00:03:58:231,-900,-2048,21440,824,-209,-38,1
00:03:58:481,1044,340,15460,227,-806,-37,0
00:03:58:735,328,5072,4588,-1421,630,-255,0
00:03:58:990,-2892,-1488,14660,-310,-71,-111,0
00:03:59:240,-840,-3184,7668,-500,156,-205,0
00:03:59:494,-404,1136,12560,-1665,965,-229,0
00:03:59:747,-892,-1148,15616,-630,-187,-159,0
00:03:59:998,-1204,820,14364,-178,-429,-170,1
00:04:00:250,-140,-644,14216,-256,317,-106,1
00:04:00:502,-116,-500,14968,-145,-16,-116,0
00:04:00:753,-180,-560,15488,-143,58,-102,1
00:04:01:006,-192,-440,14984,-141,72,-134,1
00:04:01:258,-196,-396,14924,-157,43,-106,0
00:04:01:510,-228,-364,15092,-159,54,-135,0
00:04:01:764,-160,-340,15144,-169,100,-126,0
00:04:02:015,-164,-360,14912,-152,56,-143,0
00:04:02:267,-240,-316,14924,-144,74,-116,0
00:04:02:520,-248,-316,14968,-152,84,-119,0
00:04:02:772,-204,-324,15012,-182,71,-116,0
00:04:03:024,-200,-360,15008,-156,38,-114,0
00:04:03:277,-208,-308,14888,-148,74,-112,0
00:04:03:529,-164,-260,15084,-142,60,-133,0
00:04:03:781,-220,-340,14864,-152,47,-134,0
00:04:04:034,-188,-332,14964,-158,58,-123,0
00:04:04:285,-232,-396,15028,-141,77,-98,0
00:04:04:538,-264,-304,15112,-145,61,-114,0
00:04:04:791,-248,-264,14988,-143,65,-145,0
00:04:05:042,-232,-280,15084,-154,65,-99,0
00:04:05:295,-228,-368,14932,-146,74,-127,0
00:04:05:548,-204,-296,15076,-154,80,-113,0
00:04:05:800,-124,-308,15040,-141,60,-133,0
00:04:06:052,-168,-336,14872,-156,59,-128,0
00:04:06:304,-192,-280,14872,-149,60,-116,0
00:04:06:557,-248,-328,15084,-149,64,-107,0
00:04:06:809,-208,-324,15036,-168,75,-115,0
00:04:07:061,-252,-336,15064,-151,77,-118,0
00:04:07:314,-128,-276,14988,-151,70,-104,0
00:04:07:566,-204,-340,15080,-163,66,-112,0
00:04:07:819,-228,-352,15068,-150,49,-111,0
00:04:08:071,-332,-396,14916,-159,72,-127,0
00:04:08:324,-252,-352,15008,-161,109,-106,0
00:04:08:575,-216,-352,15064,-152,61,-129,0
00:04:08:828,-148,-272,14988,-157,68,-128,0
00:04:09:080,-288,-452,14928,-165,89,-126,0
00:04:09:331,-80,-344,14916,-149,61,-137,0
00:04:09:585,-184,-396,14988,-162,52,-120,0
00:04:09:837,-204,-340,15044,-133,45,-115,0
00:04:10:089,-152,-332,14804,-165,98,-111,0
00:04:10:342,-280,-408,14992,-166,79,-107,0
00:04:10:594,-148,-404,15044,-143,64,-100,0
00:04:10:846,-140,-260,14968,-155,30,-132,0
00:04:11:099,-180,-392,15100,-142,63,-141,0
00:04:11:351,-164,-280,15092,-169,78,-135,0
00:04:11:603,-160,-356,14928,-183,51,-130,0
00:04:11:856,-236,-312,15000,-131,47,-123,0
00:04:12:108,-224,-376,15096,-158,55,-137,0
00:04:12:360,-172,-360,15036,-172,65,-128,0
00:04:12:613,-152,-324,14828,-157,78,-128,0
00:04:12:865,-212,-368,14964,-145,70,-114,0
00:04:13:116,-152,-324,14936,-155,56,-93,0
00:04:13:370,-224,-460,14984,-158,33,-118,0
00:04:13:622,-116,-300,15020,-150,69,-117,0
00:04:13:873,-160,-16,15028,-263,785,-78,1
00:04:14:128,-300,-216,15164,-192,106,-116,0
00:04:14:378,-228,-784,17588,-88,154,-95,0
00:04:14:631,-192,-272,14892,-192,449,-93,0
00:04:14:885,-228,-608,15696,-95,-216,-160,0
00:04:15:137,-192,-372,14884,-166,142,-134,0
00:04:15:390,-252,-252,14680,-160,-122,-122,0
00:04:15:641,-36,-532,15240,-173,226,-116,1
00:04:15:893,-312,-512,15724,-170,64,-116,0
00:04:16:144,-468,-552,15188,-66,397,-67,1
00:04:16:396,128,132,13956,-530,315,-136,1
00:04:16:650,156,-500,14736,-88,-387,-152,0
00:04:16:902,-416,-472,14692,-230,390,-81,0
00:04:17:155,-228,-312,15012,-146,-99,-172,0
00:04:17:407,-104,-348,14712,-140,45,-123,0
00:04:17:658,-92,-544,15120,-164,149,-126,1
00:04:17:911,-200,-348,14960,-130,-18,-132,0
00:04:18:164,-456,-528,14832,-187,199,-106,0
00:04:18:416,-476,-640,14804,-151,396,-123,0
00:04:18:669,-352,-388,15088,-157,304,-116,0
00:04:18:929,-1688,-27644,-32768,13023,-14398,4741,1
00:04:19:176,10252,-1560,11688,3701,726,-1367,1
00:04:19:425,-412,-272,15408,-259,719,-164,0
00:04:19:677,-376,-456,15104,-115,15,-134,1
00:04:19:929,-560,-520,15140,-189,19,-112,0
00:04:20:182,-148,312,14764,-185,159,-140,0
00:04:20:434,-252,-332,14508,-134,32,-119,1
00:04:20:687,-372,-636,15508,-154,191,-124,0
00:04:20:937,-220,-692,13108,-96,140,-67,0
00:04:21:192,-316,-268,15360,-143,126,-122,0
00:04:21:443,-436,-368,14972,-166,16,-113,0
00:04:21:695,-304,-336,14996,-164,37,-143,0
00:04:21:948,-376,-348,14924,-172,55,-124,0
00:04:22:201,-392,-216,14708,-154,109,-112,0
00:04:22:450,-412,-264,14856,-169,7,-88,0
00:04:22:702,-68,-524,15836,-21,380,-76,0
00:04:22:956,-312,-440,14660,143,316,-84,0
00:04:23:210,-196,-732,15460,-124,249,-113,0
00:04:23:467,-2004,-2320,17064,-176,-944,-8548,1
00:04:23:717,-2644,-156,14048,-188,-364,1011,0
00:04:23:967,1476,-692,15404,-540,415,-788,1
00:04:24:219,-1480,-268,14868,-496,418,13,1
00:04:24:472,1444,-524,11980,-709,3590,299,1
00:04:24:726,2540,-976,11504,-370,-4201,1156,1
00:04:24:980,3776,-1832,6236,6956,-4764,-2111,0
00:04:25:232,-1236,7012,7972,3954,10816,-6792,1
00:04:25:484,2264,-3824,14060,4824,-1948,6058,0
00:04:25:731,-952,-568,15016,74,896,1096,0
00:04:25:985,-540,-452,14900,-137,54,-145,1
00:04:26:237,-616,-332,15092,-124,53,-122,1
00:04:26:490,-668,-332,14832,-152,60,-134,0
00:04:26:742,-544,-412,15040,-147,57,-122,0
00:04:26:994,-600,-384,14852,-149,54,-108,0
00:04:27:247,-656,-288,15016,-160,61,-130,1
00:04:27:499,-620,-300,14844,-133,76,-116,0
00:04:27:751,-500,-392,14944,-149,81,-129,0
00:04:28:003,-616,-388,15040,-152,81,-113,0
00:04:28:256,-564,-344,15052,-172,65,-105,0
00:04:28:508,-536,-440,14948,-167,75,-141,1
00:04:28:760,-568,-332,14960,-149,65,-139,1
00:04:29:013,-592,-476,15024,-177,52,-115,0
00:04:29:265,-652,-332,15016,-168,76,-122,0
00:04:29:517,-608,-344,14944,-142,65,-91,0
00:04:29:770,-656,-376,14912,-144,58,-118,0
00:04:30:023,-676,-364,15064,-166,64,-119,0
00:04:30:275,-644,-388,14960,-194,54,-135,0
00:04:30:526,-612,-360,14888,-173,63,-98,0
00:04:30:780,-568,-368,14988,-150,84,-149,0
00:04:31:032,-600,-352,14928,-142,64,-111,0
00:04:31:284,-508,-376,15044,-164,59,-116,0
00:04:31:537,-592,-316,14920,-143,52,-109,0
00:04:31:789,-568,-480,14972,-123,63,-127,0
00:04:32:041,-624,-384,14824,-145,86,-128,0
00:04:32:294,-608,-332,14976,-163,40,-121,0
00:04:32:546,-624,-392,14976,-141,63,-117,0
00:04:32:798,-588,-428,15036,-175,76,-103,0
00:04:33:050,-504,-224,15108,-163,71,-126,0
00:04:33:303,-568,-368,14880,-166,82,-119,0
00:04:33:555,-456,-332,14796,-145,64,-127,0
00:04:33:808,-528,-328,14928,-152,69,-122,0
00:04:34:060,-552,-368,15104,-155,56,-116,0
00:04:34:312,-756,-504,15108,-105,-3,-107,0
00:04:34:563,-548,-368,15064,-182,64,-99,0
00:04:34:818,-584,-404,14884,-144,102,-120,0
00:04:35:070,-616,-400,14968,-148,66,-107,0
00:04:35:321,-664,-312,14992,-152,65,-91,0
00:04:35:574,-564,-296,14932,-136,85,-134,0
00:04:35:826,-588,-340,14872,-133,67,-113,0
00:04:36:079,-556,-244,14940,-171,43,-146,0
00:04:36:331,-540,-336,14868,-156,65,-116,0
00:04:36:583,-656,-320,14928,-150,64,-101,0
00:04:36:836,-612,-380,15096,-152,60,-105,0
00:04:37:087,-288,-456,14552,-165,88,-83,0
00:04:37:339,-624,-392,14868,-147,82,-90,0
00:04:37:593,-404,-352,14952,-166,63,-109,0
00:04:37:845,-672,-296,15088,-158,63,-114,0
00:04:38:097,-668,-336,14892,-146,55,-121,0
00:04:38:350,-564,-440,14992,-138,61,-102,0
00:04:38:602,-540,-324,14972,-167,96,-121,0
00:04:38:855,-520,-356,15092,-157,87,-109,0
00:04:39:107,-492,-304,14956,-140,71,-134,0
00:04:39:358,-548,-380,14916,-175,61,-99,0
00:04:39:612,-548,-376,14840,-165,45,-113,0
00:04:39:864,-528,-412,15040,-170,68,-126,0
00:04:40:116,-576,-308,15084,-146,51,-116,0
00:04:40:368,-508,-288,14912,-164,70,-108,0
00:04:40:620,-624,-388,15036,-159,92,-94,0
00:04:40:873,-580,-416,14964,-161,63,-107,0
00:04:41:125,-572,-464,14744,-130,60,-104,0
00:04:41:379,-2176,-428,15224,-115,-262,81,1
00:04:41:633,1268,272,15012,12424,-9577,4803,1
00:04:41:885,3964,2356,11828,932,-265,-1731,0
00:04:42:136,4060,1740,14124,-3182,172,-18,0
00:04:42:391,4376,-256,16476,-3194,3425,-3214,0
00:04:42:639,172,96,15244,-841,3077,-2500,0
00:04:42:893,-668,-184,15692,-242,-363,179,0
00:04:43:147,-1336,1268,13296,-1938,251,3964,0
00:04:43:399,-1264,-2068,15812,861,-2267,251,0
00:04:43:649,388,-264,14568,1955,2404,814,0
00:04:43:899,-104,-140,15184,47,-6,-653,0
00:04:44:152,92,-588,14920,-108,574,-138,0
00:04:44:405,180,108,14620,-40,1504,-141,0
00:04:44:659,-244,-76,15216,-166,-171,-104,0
00:04:44:911,-204,-408,15016,-183,-28,-114,0
00:04:45:161,-100,104,13980,-97,-5,-123,0
00:04:45:413,24,-740,14620,-106,671,-96,0
00:04:45:668,-136,-192,14988,-213,330,-102,0
00:04:45:920,244,-476,14972,-163,-179,197,0
00:04:46:173,-372,-280,15552,-57,-213,-117,0
00:04:46:422,-200,-624,14600,-80,8,-136,0
00:04:46:675,-240,44,14440,-128,-181,-87,0
00:04:46:928,-72,-84,14368,-119,-37,-130,0
00:04:47:183,-200,-1648,14048,-162,-101,-82,0
00:04:47:435,-332,-732,15104,145,-677,-184,0
00:04:47:684,-76,188,15348,-119,70,-120,0
00:04:47:938,-164,-552,15164,-250,271,-72,0
00:04:48:189,-24,-512,15036,-237,85,-72,0
00:04:48:443,-156,-332,15320,-77,-112,-87,0
00:04:48:696,-216,-140,15616,-137,15,-115,0
00:04:48:947,-16,148,14908,-170,203,-131,0
00:04:49:201,-196,-200,14808,-185,202,-107,0
00:04:49:453,-84,-336,15424,-114,-113,-71,0
00:04:49:707,-1488,-424,14772,-299,-80,-218,0
00:04:49:955,340,64,15188,-222,143,-114,0
00:04:50:209,436,-344,14564,-182,56,-119,0
00:04:50:464,-192,-852,16004,-341,1067,-126,0
00:04:50:712,88,-24,14548,-162,298,-105,0
00:04:50:967,-276,-592,14832,-145,155,-91,0
00:04:51:220,-324,-220,14828,-168,113,-104,0
00:04:51:471,-324,-280,15360,-163,38,-110,0
00:04:51:723,-252,-236,14948,-153,93,-110,0
00:04:51:976,-216,-496,14840,-162,58,-116,0
00:04:52:228,-264,-316,15156,-161,66,-113,0
00:04:52:480,-228,-284,15016,-157,64,-108,0
00:04:52:733,-328,-408,15164,-135,67,-100,0
00:04:52:985,-276,-320,14940,-147,53,-100,0
00:04:53:237,-236,-388,15224,-155,57,-131,0
00:04:53:489,-204,-384,14932,-142,61,-92,0
00:04:53:742,-624,-588,14148,-170,260,-95,0
00:04:53:993,-980,200,14200,-254,-224,34,0
00:04:54:246,-852,-124,15884,-176,12,205,0
00:04:54:499,-484,-688,14932,-142,19,-126,0
00:04:54:752,-468,-592,14828,-178,245,-121,0
00:04:55:004,-460,-300,15124,-97,-224,-94,0
00:04:55:256,-508,-1124,16196,-227,69,-89,0
00:04:55:508,-328,-560,15508,-164,45,-137,0
00:04:55:761,-368,-332,15316,-128,34,-130,0
00:04:56:013,-284,-392,15048,-146,49,-125,0
00:04:56:266,-316,-356,14944,-151,62,-108,0
00:04:56:518,-328,-380,15036,-144,77,-121,0
00:04:56:770,-276,-288,14896,-161,72,-110,0
00:04:57:022,-300,-400,14800,-154,75,-112,0
00:04:57:275,-296,-288,15052,-144,73,-111,0
00:04:57:527,-192,-228,14996,-160,66,-106,0
00:04:57:778,-324,-256,15064,-146,70,-97,0
00:04:58:032,-188,-372,14976,-146,67,-122,0
00:04:58:284,-216,-408,14984,-153,60,-122,0
00:04:58:536,-308,-308,15028,-164,44,-131,0
00:04:58:789,-348,-316,14880,-139,56,-120,0
00:04:59:041,-312,-304,14920,-150,63,-100,0
00:04:59:293,-284,-320,14952,-159,57,-110,0
00:04:59:545,-268,-400,14868,-155,59,-99,0
00:04:59:798,-320,-316,15076,-174,67,-106,0
00:05:00:050,-292,-312,14976,-148,62,-107,0
00:05:00:302,-268,-344,14976,-151,60,-131,0
00:05:00:554,-324,-336,15088,-159,55,-97,0
00:05:00:807,-276,-220,15068,-143,50,-105,0
00:05:01:059,-380,-328,14960,-163,97,-138,0
00:05:01:312,-328,-452,14876,-173,46,-116,0
00:05:01:564,-248,-440,14840,-151,73,-102,0
00:05:01:816,-288,-356,15012,-157,99,-108,0
00:05:02:069,-384,-360,14948,-164,55,-102,0
00:05:02:321,-304,-352,14948,-136,62,-116,0
00:05:02:573,-276,-356,15028,-163,41,-129,0
00:05:02:826,-332,-400,15112,-143,65,-138,0
00:05:03:078,-344,-200,14972,-150,85,-140,0
00:05:03:330,-288,-308,14904,-140,53,-115,0
00:05:03:582,-272,-376,15016,-156,64,-93,0
00:05:03:835,-284,-384,15056,-172,18,-107,0
00:05:04:087,-380,-368,15012,-155,71,-108,0
00:05:04:340,-252,-392,14772,-152,90,-123,0
00:05:04:591,-308,-308,15088,-156,74,-90,0
00:05:04:844,-304,-208,14960,-171,64,-126,0
00:05:05:097,-248,-412,14964,-177,59,-112,0
00:05:05:349,-272,-356,14888,-134,74,-114,0
00:05:05:601,-264,-304,14972,-167,72,-104,0
00:05:05:854,-288,-348,15016,-143,44,-118,0
00:05:06:106,-332,-372,14908,-147,73,-124,0
00:05:06:357,-288,-440,14964,-154,74,-97,0
00:05:06:610,-376,-268,14896,-159,46,-91,0
00:05:06:863,-252,-300,15068,-142,62,-119,0
00:05:07:115,-308,-400,15012,-145,62,-107,0
00:05:07:368,-324,-300,14876,-161,82,-127,0
00:05:07:620,-316,-312,15032,-165,69,-109,0
00:05:07:872,-272,-372,15048,-151,64,-105,0
00:05:08:125,-256,-404,15108,-147,76,-131,0
00:05:08:377,-320,-364,15016,-155,82,-102,0
00:05:08:629,-244,-312,15084,-161,57,-112,0
00:05:08:881,-264,-340,14868,-176,83,-122,0
00:05:09:134,-252,-252,14960,-146,78,-110,0
00:05:09:386,-332,-360,15044,-155,79,-113,0
00:05:09:638,-252,-340,14972,-136,65,-91,0
00:05:09:891,-248,-340,14944,-154,84,-114,0
00:05:10:144,-180,-360,14976,-154,58,-121,0
00:05:10:396,-224,-356,15104,-151,73,-111,0
00:05:10:648,-216,-232,15144,-131,57,-105,0
00:05:10:901,-148,-292,14996,-157,70,-109,0
00:05:11:152,-300,-288,15040,-155,59,-98,0
00:05:11:405,-260,-292,14836,-163,56,-116,0
00:05:11:658,-288,-356,15076,-136,68,-132,0
00:05:11:910,-376,-364,14968,-162,63,-112,0
00:05:12:162,-296,-372,14996,-156,77,-119,0
00:05:12:414,-348,-272,14912,-142,89,-88,0
00:05:12:667,-252,-364,15108,-142,59,-124,0
00:05:12:919,-356,-332,14988,-134,82,-110,0
00:05:13:170,-300,-444,15048,-159,72,-98,0
00:05:13:424,-252,-272,14960,-141,64,-115,0
00:05:13:676,-256,-376,14904,-157,60,-115,0
00:05:13:926,-328,608,16052,381,-15,-77,0
00:05:14:182,-232,-552,15448,-253,-24,-108,0
00:05:14:435,-1628,-988,17192,-96,-114,-106,0
00:05:14:686,-276,-164,15484,-123,-54,-119,0
00:05:14:938,-368,-348,15596,-159,53,-106,0
00:05:15:190,-252,-392,15516,-94,133,-120,0
00:05:15:442,-228,-552,15384,-156,57,-104,0
00:05:15:695,-260,-280,15244,-134,57,-106,0
00:05:15:947,-296,-392,15100,-126,72,-121,0
00:05:16:199,-276,-288,14976,-193,71,-111,0
00:05:16:452,-352,-300,14880,-142,68,-133,0
00:05:16:704,-312,-216,15004,-165,52,-101,0
00:05:16:956,-156,-360,14944,-137,64,-114,0
00:05:17:209,-196,-420,14908,-161,65,-128,0
00:05:17:461,-324,-332,15088,-157,67,-126,0
00:05:17:713,-320,-284,15072,-146,73,-107,0
00:05:17:966,-160,-332,14960,-168,58,-112,0
00:05:18:218,-272,-332,14992,-153,86,-142,0
00:05:18:470,-152,-304,15032,-174,51,-128,0
00:05:18:723,-216,-280,15160,-141,74,-108,0
00:05:18:975,-260,-264,15108,-140,78,-106,0
00:05:19:227,-328,-420,15068,-144,73,-114,0
00:05:19:480,-224,-244,14984,-169,64,-102,0
00:05:19:731,-252,-272,15076,-147,94,-91,0
00:05:19:984,-268,-392,15160,-148,64,-121,0
00:05:20:237,-316,-240,15152,-140,62,-115,0
00:05:20:489,-316,-420,15040,-171,63,-128,0
00:05:20:741,-184,-328,14948,-147,68,-100,0
00:05:20:995,-256,-356,14980,-168,109,-118,0
00:05:21:246,-296,-424,15100,-144,54,-115,0
00:05:21:498,-248,-300,14896,-131,84,-116,0
00:05:21:750,-236,-284,15188,-154,52,-119,0
00:05:22:003,-324,-280,14988,-148,76,-129,0
00:05:22:255,-296,-340,14964,-152,60,-130,0
00:05:22:507,-248,-256,15044,-163,39,-127,0
00:05:22:760,-304,-388,15132,-143,95,-100,0
00:05:23:013,-244,-204,14900,-144,53,-114,0
00:05:23:264,-576,-744,16272,-93,50,-100,0
00:05:23:515,852,1276,6164,551,1443,-91,1
00:05:23:774,-4824,3304,15280,-1327,-813,-124,0
00:05:24:026,-2588,-7708,-6876,3183,3025,-154,1
00:05:24:275,9848,340,14188,1459,3051,-114,1
00:05:24:528,4416,-1132,3720,534,1952,-193,1
00:05:24:782,360,-2020,19860,-2788,-762,-184,1
00:05:25:037,2028,-16252,32767,-1456,5433,-194,1
00:05:25:285,-5348,6388,20940,2769,-631,-9,1
00:05:25:540,5196,-80,32767,-1133,-1453,-125,1
00:05:25:790,-968,8900,9352,-1976,1735,-354,1
00:05:26:046,-5316,-14724,11876,4875,-2516,-72,1
00:05:26:296,1432,-6056,32767,1366,-572,-118,1
00:05:26:549,9264,1468,20816,-3961,2465,-251,1
00:05:26:800,-3452,-1116,2848,2069,-2251,93,0
00:05:27:054,-1660,-2020,20344,-561,-512,-124,0
00:05:27:304,-820,-620,17012,-277,-143,-113,0
00:05:27:554,-72,-328,14508,-81,115,-103,0
00:05:27:807,-252,-652,15244,-233,96,-108,0
00:05:28:059,-304,372,15384,-20,-166,-116,0
00:05:28:313,2376,1624,14476,-468,-486,-83,0
00:05:28:565,-404,-548,12912,-169,184,-128,0
00:05:28:817,-136,-464,16040,-223,153,-115,0
00:05:29:070,-256,-420,15272,-135,-20,-134,0
00:05:29:320,-284,-280,14964,-116,9,-116,0
00:05:29:573,-212,-432,14660,-147,43,-149,0
00:05:29:827,-152,-188,14532,-177,181,-100,0
00:05:30:076,456,-24,17020,247,-560,-72,0
00:05:30:331,-404,-488,15844,-232,332,-112,1
00:05:30:583,-192,-268,15072,-144,105,-97,0
00:05:30:835,-324,-508,15176,-167,18,-136,0
00:05:31:087,-240,-308,14944,-162,50,-114,0
00:05:31:339,-232,-368,15048,-163,49,-112,0
00:05:31:591,-312,-256,15036,-175,86,-94,0
00:05:31:844,-152,-328,15100,-146,68,-115,0
00:05:32:097,-332,-176,14968,-157,60,-114,0
00:05:32:348,-308,-368,14924,-154,52,-90,0
00:05:32:601,-292,-352,14996,-153,59,-113,0
00:05:32:852,-288,-456,15024,-158,84,-85,0
00:05:33:106,-316,-444,14920,-141,37,-129,0
00:05:33:358,-220,-284,15040,-140,65,-126,0
00:05:33:610,-324,-420,14964,-144,55,-118,0
00:05:33:863,-268,-244,14856,-168,73,-105,0
00:05:34:114,-260,-308,14984,-154,80,-90,0
00:05:34:368,-160,-324,15032,-108,55,-123,0
00:05:34:620,-244,-320,15064,-135,88,-137,0
00:05:34:872,-280,-396,15120,-179,64,-111,0
00:05:35:124,-276,-248,14816,-127,66,-116,0
00:05:35:377,3380,2384,8132,-1631,705,-269,0
00:05:35:629,2256,-1752,22208,378,-891,-77,1
00:05:35:884,5516,-1968,-8176,-3502,2951,-74,1
00:05:36:134,1412,-3896,16028,3218,-621,136,1
00:05:36:384,4052,448,10392,2331,-2665,99,1
00:05:36:640,14944,-848,10284,-3394,4721,-138,1
00:05:36:891,2840,8216,4240,-3921,3060,-270,1
00:05:37:142,4984,1076,3776,-1699,1523,-37,1
00:05:37:399,1200,-7348,32767,-1194,-1091,-174,1
00:05:37:647,3436,-4048,8236,449,1071,-198,0
00:05:37:903,7696,-16864,32767,-4512,3014,-495,1
00:05:38:152,396,-3420,22200,3746,4294,-132,1
00:05:38:402,-2876,5204,-792,-1461,4,-74,1
00:05:38:659,-2828,-3336,29860,-429,-2185,-60,0
00:05:38:909,-2108,2852,10176,468,-1079,65,1
00:05:39:157,12,388,12536,-770,13,-143,0
00:05:39:411,-380,-328,14756,-163,4,-122,1
00:05:39:664,-292,-372,15288,-119,78,-106,1
00:05:39:917,-240,-396,15060,-148,76,-114,0
00:05:40:169,-316,-340,15144,-155,74,-127,0
00:05:40:421,-360,-284,15100,-136,69,-111,0
00:05:40:674,-260,-324,15032,-167,47,-120,0
00:05:40:925,-320,-280,15168,-167,75,-98,0
00:05:41:178,-320,-336,14980,-177,67,-125,0
00:05:41:431,-260,-332,15056,-158,57,-133,0
00:05:41:683,-288,-340,14908,-161,82,-130,0
00:05:41:935,-240,-296,15100,-153,69,-123,0
00:05:42:188,-320,-372,15020,-140,60,-119,0
00:05:42:440,-248,-412,15048,-163,72,-145,0
00:05:42:691,-368,-372,15216,-143,70,-94,0
00:05:42:945,-288,-376,14988,-140,79,-108,0
00:05:43:197,-416,-308,15004,-148,47,-119,0
00:05:43:449,-332,-304,14852,-137,82,-111,0
00:05:43:702,-276,-340,14944,-176,76,-114,0
00:05:43:954,-280,-392,15008,-136,62,-117,0
00:05:44:207,-204,-500,14992,-110,-14,-102,0
00:05:44:458,-276,-540,14940,-164,88,-122,0
00:05:44:711,-216,-340,15036,-123,78,-127,0
00:05:44:963,-316,-316,14956,-168,53,-104,0
00:05:45:215,-272,-348,15012,-157,74,-118,0
00:05:45:467,-300,-332,15044,-162,73,-99,0
00:05:45:720,-324,-348,14912,-150,66,-102,0
00:05:45:972,-288,-324,14860,-153,47,-108,0
00:05:46:225,-236,-340,15064,-167,72,-111,0
00:05:46:477,-304,-356,15024,-147,64,-108,0
00:05:46:729,-360,-388,14908,-164,71,-115,0
00:05:46:982,-220,-380,14968,-146,72,-107,0
00:05:47:234,-284,-348,14892,-160,69,-127,0
00:05:47:485,-276,-324,15024,-171,63,-98,0
00:05:47:739,-184,-352,15004,-157,45,-121,0
00:05:47:991,-296,-260,15028,-150,84,-120,0
00:05:48:243,-276,-324,15012,-159,85,-102,0
00:05:48:496,-268,-320,15068,-165,70,-131,0
00:05:48:747,-268,-304,14996,-164,84,-87,0
00:05:49:001,-248,-420,14936,-155,45,-104,0
00:05:49:253,-288,-236,14916,-156,52,-107,0
00:05:49:505,-276,-340,15060,-140,73,-115,0
00:05:49:757,-300,-376,14992,-160,72,-125,0
00:05:50:010,-360,-376,15088,-152,63,-108,0
00:05:50:263,-260,-332,14928,-149,86,-134,0
00:05:50:515,-332,-364,14964,-176,70,-104,0
00:05:50:767,-320,-424,14928,-141,65,-137,0
00:05:51:019,-348,-332,14980,-138,77,-122,0
00:05:51:272,-300,-320,14988,-140,70,-126,0
00:05:51:523,-304,-256,14976,-165,90,-84,0
00:05:51:776,-244,-348,14992,-156,71,-121,0
00:05:52:028,-332,-200,15040,-156,77,-106,0
00:05:52:281,-236,-300,14960,-177,86,-108,0
00:05:52:533,-296,-348,15068,-160,65,-101,0
00:05:52:786,-364,-340,14844,-157,56,-110,0
00:05:53:038,-256,-392,14960,-159,69,-106,0
00:05:53:290,-404,-288,14940,-151,51,-123,0
00:05:53:543,-244,-320,14984,-149,63,-130,0
00:05:53:795,-316,-260,15104,-161,44,-141,0
00:05:54:047,-276,-308,15036,-148,96,-107,0
00:05:54:300,-288,-340,14924,-155,73,-110,0
00:05:54:552,-304,-304,14952,-160,66,-116,0
00:05:54:804,-348,-388,14920,-150,78,-149,0
00:05:55:056,-212,-348,15088,-138,60,-126,0
00:05:55:309,-264,-384,15052,-149,64,-121,0
00:05:55:561,-292,-424,15012,-168,67,-111,0
00:05:55:814,-292,-284,15084,-157,69,-123,0
00:05:56:066,-208,-408,14984,-144,56,-105,0
00:05:56:318,-340,-280,15024,-165,80,-111,0
00:05:56:571,-248,-348,14892,-137,47,-100,0
00:05:56:823,-184,-340,14916,-158,84,-119,0
00:05:57:075,-296,-296,14920,-167,62,-117,0
00:05:57:327,-272,-348,15084,-171,70,-116,0
00:05:57:580,-352,-248,15052,-154,63,-131,0
00:05:57:832,-244,-360,14972,-148,39,-117,0
00:05:58:085,-268,-296,15024,-144,72,-108,0
00:05:58:337,-276,-252,14776,-144,79,-114,0
00:05:58:589,-260,-348,14972,-159,72,-124,0
00:05:58:841,-316,-296,15168,-147,80,-115,0
00:05:59:098,-2900,-1048,9664,-1049,-563,-133,0
00:05:59:344,-308,-8,15460,-96,83,-123,0
00:05:59:598,-276,-480,14772,-188,78,-128,0
00:05:59:850,-256,-184,14868,-138,87,-96,0
00:06:00:104,-464,-656,13900,-186,136,-111,0
00:06:00:355,-408,-428,15332,-110,12,-135,0
00:06:00:607,-232,180,15196,-161,59,-100,0
00:06:00:860,-292,-236,15236,-152,74,-103,0
00:06:01:112,-360,-380,15240,-165,57,-124,0
00:06:01:364,-300,-132,15224,-169,47,-84,0
00:06:01:617,-180,-344,15140,-136,47,-121,0
00:06:01:869,-268,-352,15076,-160,83,-90,0
00:06:02:122,-368,-388,15024,-182,74,-103,0
00:06:02:374,-364,-252,15144,-170,72,-128,0
00:06:02:626,-244,-392,15056,-156,52,-106,0
00:06:02:879,-292,-300,14972,-156,89,-120,0
00:06:03:131,-232,-292,15148,-144,57,-100,0
00:06:03:383,-296,-212,14896,-148,75,-126,0
00:06:03:636,-292,-296,14960,-178,52,-111,0
00:06:03:888,-252,-360,14928,-177,65,-134,0
00:06:04:140,-144,-388,15112,-150,64,-111,0
00:06:04:393,-232,-316,15032,-160,77,-132,0
00:06:04:645,-248,-352,15032,-137,77,-109,0
00:06:04:897,-260,-228,14984,-165,62,-128,0
00:06:05:150,-228,-348,15020,-157,65,-128,0
00:06:05:402,-268,-212,14928,-155,90,-113,0
00:06:05:654,-296,-360,15008,-132,80,-108,0
00:06:05:906,-324,-324,14792,-145,72,-119,0
00:06:06:160,832,-2144,19416,-541,714,-174,0
00:06:06:413,7936,6264,11900,-4827,-86,-375,1
00:06:06:669,-7040,-1628,8728,-3729,-2985,-206,1
00:06:06:916,-3132,912,16336,1433,141,-78,0
00:06:07:170,1440,-5076,32767,2179,-312,163,0
00:06:07:422,-2552,-584,15928,404,3327,104,1
00:06:07:676,-364,-6980,32767,2409,-1360,242,1
00:06:07:928,-4040,-3872,32767,-155,613,-133,1
00:06:08:181,-2156,-2728,14728,3909,1090,233,1
00:06:08:435,-6824,-11720,32767,2027,-1219,-56,1
00:06:08:681,912,-2796,30852,1329,145,83,1
00:06:08:936,-116,-1700,15212,-539,50,-126,0
00:06:09:189,-2716,956,21768,-939,-760,-235,1
00:06:09:443,-432,-7416,28796,-2783,1351,-369,0
00:06:09:693,-788,-724,20328,106,-1207,-77,1
00:06:09:946,-2320,-2072,18884,678,-855,-20,0
00:06:10:197,472,-2012,18308,496,1243,-112,1
00:06:10:452,1044,-344,22140,-1414,-202,-238,0
00:06:10:700,-464,420,15576,-555,62,-101,0
00:06:10:955,1048,-4152,25184,1360,-912,-47,0
00:06:11:208,-1072,-1788,11920,-61,-619,-81,0
00:06:11:457,312,1540,10084,-346,62,-139,0
00:06:11:709,1512,-916,10860,570,-414,35,0
00:06:11:965,9408,-3984,13208,1256,1499,-84,0
00:06:12:217,-548,1988,13236,-521,-227,-140,1
00:06:12:467,-316,-1044,16320,67,76,-102,0
00:06:12:721,-304,-232,14736,-139,100,-107,0
00:06:12:972,-216,-388,15144,-211,44,-110,0
00:06:13:224,-396,-348,14784,-177,52,-122,0
00:06:13:477,-136,-220,15156,-180,72,-105,0
00:06:13:729,-356,-400,15016,-149,56,-106,0
00:06:13:980,-380,-332,14888,-138,70,-96,0
00:06:14:233,-260,-420,15060,-152,71,-93,0
00:06:14:486,-460,-348,15008,-158,70,-139,0
00:06:14:738,-240,-384,15168,-158,66,-116,0
00:06:14:991,140,-824,9128,-822,-940,-175,0
00:06:15:243,-296,172,13764,110,-537,-104,0
00:06:15:493,-456,60,14764,-358,36,-149,1
00:06:15:746,-172,-672,15204,-85,16,-89,0
00:06:16:000,-196,-580,14704,-145,-55,-97,0
00:06:16:251,-52,-332,15324,-252,124,-89,0
00:06:16:506,-492,-640,14552,-152,-48,-158,0
00:06:16:758,-240,-436,15576,-149,155,-121,0
00:06:17:010,-272,-340,14552,-121,-17,-116,0
00:06:17:262,-284,-288,15196,-128,34,-113,1
00:06:17:514,-252,-320,15036,-159,71,-124,0
00:06:17:766,-268,-428,14820,-152,61,-105,0
00:06:18:019,-376,-340,14852,-149,74,-138,0
00:06:18:271,-184,-416,14988,-151,56,-128,0
00:06:18:523,-220,-296,14988,-140,65,-104,0
00:06:18:776,-272,-348,14892,-152,34,-125,0
00:06:19:028,-308,-324,15004,-146,77,-110,0
00:06:19:280,-276,-348,15200,-155,52,-113,0
00:06:19:533,-240,-340,15116,-150,70,-104,0
00:06:19:785,-284,-348,14984,-143,40,-122,0
00:06:20:037,-304,-312,14984,-167,77,-113,0
00:06:20:289,-340,-376,14888,-179,88,-110,0
00:06:20:542,-352,-248,14912,-178,73,-141,0
00:06:20:794,-252,-168,14876,-187,90,-128,0
00:06:21:047,-324,-224,15004,-177,20,-116,0
00:06:21:296,620,712,9824,206,233,-124,0
00:06:21:553,-1104,-3264,11712,519,-423,-79,0
00:06:21:806,-2644,5328,628,-1464,-358,-112,1
00:06:22:057,1996,5040,11260,133,1127,-140,0
00:06:22:308,-1832,3672,6832,1350,-43,-68,0
00:06:22:562,4536,5028,12032,-2059,745,-275,0
00:06:22:814,-3916,-968,18376,476,-357,-23,0
00:06:23:065,1588,4316,6952,-2004,69,-332,0
00:06:23:319,-3144,1212,12972,-669,-758,-45,0
00:06:23:570,1064,1228,10752,546,839,-207,0
00:06:23:825,2508,-1920,19752,-2419,622,-224,0
00:06:24:074,988,5396,-240,-630,-1875,-57,0
00:06:24:329,-1372,-1144,16828,140,-2815,13,1
00:06:24:578,2836,3256,4244,673,-1049,99,0
00:06:24:833,-3568,-76,10628,-664,-100,-96,0
00:06:25:084,-952,-788,11720,851,747,-131,1
00:06:25:339,5312,-2256,19928,373,2721,-229,1
00:06:25:591,1580,1116,11100,-1465,249,-211,1
00:06:25:840,1024,180,15648,-168,50,-130,1
00:06:26:096,6496,-304,5272,-3648,1455,-465,0
00:06:26:346,372,-516,17408,-419,-99,-160,0
00:06:26:598,-644,-148,15264,-172,11,-109,0
00:06:26:851,-240,-192,15208,-151,44,-115,0
00:06:27:103,-360,-364,15020,-193,32,-106,0
00:06:27:355,-304,-164,15136,-146,42,-120,0
00:06:27:608,-324,-404,15076,-154,68,-102,0
00:06:27:860,-428,-368,15088,-151,47,-118,0
00:06:28:112,-244,-380,15296,-159,61,-119,0
00:06:28:365,-256,-280,15344,-150,150,-129,0
00:06:28:617,-272,-456,14964,-125,98,-113,0
00:06:28:869,-360,-576,15800,-140,93,-117,0
00:06:29:119,-368,76,14988,-122,43,-115,0
00:06:29:374,-332,-472,14668,-169,49,-136,0
00:06:29:626,-296,-424,15308,-165,61,-118,0
00:06:29:878,-296,-252,15052,-134,73,-124,0
00:06:30:131,-256,-360,14800,-148,75,-139,0
00:06:30:383,-400,-348,14864,-165,64,-112,0
00:06:30:635,-192,-304,15120,-144,71,-111,0
00:06:30:888,-308,-328,15024,-158,45,-130,0
00:06:31:140,-308,-268,15088,-155,57,-110,0
00:06:31:392,-424,-444,15060,-143,88,-119,0
00:06:31:645,-204,-224,14936,-154,71,-123,0
00:06:31:897,-264,-308,15040,-145,80,-127,0
00:06:32:150,-300,-368,15112,-154,73,-110,0
00:06:32:402,-260,-316,15048,-138,54,-114,0
00:06:32:654,-256,-328,14884,-158,70,-115,0
00:06:32:906,-268,-244,14944,-150,60,-115,0
00:06:33:159,-272,-392,15004,-156,43,-109,0
00:06:33:411,-332,-96,13832,-327,-962,-47,0
00:06:33:661,-440,-656,16260,8,270,-121,0
00:06:33:916,-276,140,15240,-130,133,-112,0
00:06:34:167,-324,540,16328,-88,364,-141,0
00:06:34:419,-56,-596,16980,-243,176,-82,0
00:06:34:675,-104,-740,15280,-146,-233,-135,0
00:06:34:927,-336,-360,13972,-200,-274,-123,0
00:06:35:178,-72,-216,15532,-574,-153,-199,0
00:06:35:432,-520,-1052,14240,-137,105,-104,0
00:06:35:683,-460,-80,16380,-196,-106,-144,0
00:06:35:934,-620,-1440,14504,78,817,-189,0
00:06:36:188,-132,-472,13088,-144,-296,-89,0
00:06:36:438,-588,-1012,16324,-24,44,-92,0
00:06:36:692,-408,-304,15872,-163,-6,-121,0
00:06:36:944,-300,-272,14840,-157,92,-118,0
00:06:37:195,-500,-896,14328,-168,8,-108,0
00:06:37:449,-168,-168,15700,-82,-270,-125,0
00:06:37:702,184,-820,14156,-163,-748,-108,0
00:06:37:954,-768,-72,12200,159,-1293,-228,0
00:06:38:205,-28,-148,14816,-149,76,-128,0
00:06:38:458,-152,-392,15160,-122,195,-98,0
00:06:38:709,-396,220,14012,-230,77,-110,0
00:06:38:963,-196,-72,15264,-124,14,-118,0
00:06:39:218,-528,-1380,13160,-466,1570,-110,0
00:06:39:467,-280,-32,16684,-110,125,-127,0
00:06:39:721,-296,-112,14464,-117,137,-123,1
00:06:39:973,-216,-532,14704,-171,116,-134,0
00:06:40:224,-260,-312,15472,-164,23,-114,1
00:06:40:477,-268,-428,14764,-143,49,-113,0
00:06:40:729,-268,-300,15180,-149,63,-120,0
00:06:40:981,-332,-344,14912,-157,61,-110,0
00:06:41:234,-192,-188,14920,-164,67,-122,0
00:06:41:486,-304,-376,15064,-154,55,-111,0
00:06:41:738,-1072,556,9596,-216,-413,-85,0
00:06:41:990,-260,416,14596,-141,51,-111,0
00:06:42:245,-860,-908,13332,-333,-687,-165,0
00:06:42:495,-28,-324,15704,-235,321,-125,0
00:06:42:746,-192,756,14292,-129,75,-99,0
00:06:43:000,112,-52,11980,-152,-510,-175,0
00:06:43:252,-120,172,15700,-174,179,-109,0
00:06:43:504,-608,-552,15032,-111,3,-110,0
00:06:43:757,-108,-228,15592,-145,36,-112,0
00:06:44:009,-132,552,14720,86,-406,-167,0
00:06:44:266,-768,-1196,15948,-110,-1262,-296,0
00:06:44:513,200,384,13444,-241,310,-128,0
00:06:44:770,-1300,-524,18256,-259,-233,-195,1
00:06:45:020,-204,-392,12476,-95,-450,-134,0
00:06:45:270,-456,36,15168,-192,261,-124,0
00:06:45:524,72,-1720,16960,-209,368,-144,0
00:06:45:777,-244,636,14472,-238,-150,-143,0
00:06:46:028,-148,-384,13328,-149,63,-119,0
00:06:46:281,-304,-816,12980,-145,35,-135,0
00:06:46:533,-124,-204,13352,-84,508,-118,0
00:06:46:788,-492,-676,14512,-177,-244,-104,0
00:06:47:039,-348,-288,15288,-135,179,-107,0
00:06:47:288,-212,4,15420,-256,160,-132,0
00:06:47:544,-456,-536,14940,-114,-302,-115,0
00:06:47:795,-220,-520,16088,-177,126,-116,0
00:06:48:045,80,336,16240,-142,337,-133,0
00:06:48:298,-560,-384,17816,-67,82,-131,0
00:06:48:549,-376,-892,12388,12,127,-80,1
00:06:48:806,-364,-1852,15216,-220,-19,-123,0
00:06:49:052,244,348,16292,6,-22,-101,0
00:06:49:308,372,484,11576,-109,-626,-176,0
00:06:49:561,144,-572,14796,-159,145,-126,0
00:06:49:813,-312,-880,15344,-167,48,-111,0
00:06:50:064,-224,164,15992,-244,20,-124,0
00:06:50:319,-116,-104,16144,-162,-88,-109,0
00:06:50:568,-360,72,13964,-172,46,-107,0
00:06:50:823,-276,-480,15088,-179,180,-136,0
00:06:51:075,164,1880,16480,-104,223,-131,0
00:06:51:328,-604,820,14596,-105,-225,-122,0
00:06:51:580,-308,-108,14708,-112,402,-114,1
00:06:51:836,-1416,-536,12300,-590,-1386,-141,0
00:06:52:086,-120,-1252,15160,-213,220,-137,0
00:06:52:334,-480,60,12592,113,529,-104,0
00:06:52:590,-220,-536,12836,-16,-199,-113,1
00:06:52:841,-160,-172,15308,-77,172,-104,0
00:06:53:093,-188,184,15124,-88,201,-118,0
00:06:53:347,104,-896,14012,-187,-197,-118,1
00:06:53:599,-200,-12,14912,-187,100,-105,0
00:06:53:850,276,-116,12800,-110,-20,-125,0
00:06:54:104,-584,-3912,14884,-197,101,-85,0
00:06:54:357,-196,-1200,15192,-157,274,-103,0
00:06:54:608,-192,-1700,15152,-322,27,-108,1
00:06:54:859,-172,-508,14744,-155,4,-118,0
00:06:55:111,-292,-192,14836,-137,6,-119,0
00:06:55:363,-188,-320,14888,-165,37,-91,0
00:06:55:617,-304,-436,14828,-145,75,-106,0
00:06:55:870,-216,-220,14980,-166,100,-129,0
00:06:56:120,-292,-444,14928,-155,68,-95,0
00:06:56:372,-176,-300,14988,-176,52,-92,0
00:06:56:626,-188,-380,14968,-162,68,-109,0
00:06:56:878,-212,-300,14968,-156,75,-99,0
00:06:57:130,-196,-396,15040,-155,56,-90,0
00:06:57:383,-252,-388,14980,-156,87,-115,0
00:06:57:636,-320,-280,14932,-158,64,-140,0
00:06:57:888,-248,-340,15012,-143,69,-107,0
00:06:58:140,-372,-352,14968,-156,54,-116,0
00:06:58:393,-344,-408,15012,-157,74,-124,0
00:06:58:645,-196,-276,15004,-150,52,-101,0
00:06:58:897,-272,-236,15048,-142,74,-127,0
00:06:59:150,-260,-268,15044,-142,42,-139,0
00:06:59:401,-296,-392,14964,-157,77,-89,0
00:06:59:654,-216,-328,15036,-151,58,-117,0
00:06:59:906,-252,-404,14972,-165,69,-85,0
00:07:00:159,-224,-332,14804,-155,39,-102,0
00:07:00:411,112,-160,15136,-187,-34,-114,0
00:07:00:664,-204,-128,14536,-66,121,-118,0
00:07:00:916,-244,-596,14932,-126,60,-115,0
00:07:01:167,-204,376,14468,216,-175,-62,0
00:07:01:420,-324,-572,14900,-167,94,-123,0
00:07:01:673,-268,-180,15228,-156,86,-123,0
00:07:01:925,-204,-416,15096,-165,58,-123,0
00:07:02:178,-244,-256,15168,-148,80,-103,0
00:07:02:430,-216,-308,15080,-153,94,-139,0
00:07:02:681,-212,-296,15104,-141,53,-97,0
00:07:02:933,-292,-472,15056,-177,61,-81,0
00:07:03:187,-360,-244,15064,-140,52,-116,0
00:07:03:438,-288,-332,14992,-141,64,-80,0
00:07:03:692,-248,-312,14912,-144,54,-124,0
00:07:03:944,-320,-280,14944,-176,72,-110,0
00:07:04:195,-320,9268,4880,-593,254,-88,0
00:07:04:449,4076,4748,32767,5728,999,308,1
00:07:04:707,-6152,11020,21808,-5996,-3812,-361,1
00:07:04:955,7488,2076,4064,-1593,3562,-206,1
00:07:05:208,80,5032,22996,-2004,-1754,-114,0
00:07:05:461,-388,5348,15568,-1210,-404,-195,1
00:07:05:707,-812,772,5712,42,337,-141,0
00:07:05:963,1700,-5160,11308,850,-2046,25,0
00:07:06:217,-1400,-940,5716,130,-1233,-120,0
00:07:06:468,1508,-2840,21932,-983,88,-215,1
00:07:06:723,-2304,-3412,23864,2369,-1226,-68,1
00:07:06:975,4232,3768,32767,-482,-1995,-157,0
00:07:07:228,-5640,1816,32416,4872,-12864,833,1
00:07:07:482,-4968,-2248,1472,-3233,-2945,-396,1
00:07:07:730,1904,2400,16244,-201,1198,-91,0
00:07:07:982,-1572,-480,21192,936,-130,-29,1
00:07:08:233,-64,-460,12792,-576,201,-197,0
00:07:08:487,-160,-400,14152,-106,112,-121,1
00:07:08:737,-212,-492,14868,-77,20,-114,0
00:07:08:990,-1212,484,11808,-224,357,-72,1
00:07:09:244,-180,288,14632,-187,-126,-127,0
00:07:09:496,-516,1956,6932,-1414,925,-171,0
00:07:09:748,1528,652,15164,-552,-352,-108,0
00:07:09:998,-24,-576,12992,-51,161,-89,0
00:07:10:251,180,-544,18016,-91,867,-131,1
00:07:10:507,-144,-744,15192,-116,-206,-150,0
00:07:10:758,-308,-532,15208,-173,-55,-120,0
00:07:11:009,-300,-280,15188,-155,89,-115,1
00:07:11:262,-208,-348,14908,-154,56,-114,0
00:07:11:514,-144,-424,14856,-181,49,-120,0
00:07:11:766,-188,-280,15068,-131,67,-151,0
00:07:12:019,-308,-304,14840,-158,58,-104,0
00:07:12:271,-300,-488,14968,-185,63,-140,0
00:07:12:523,-192,-516,15024,-151,72,-111,0
00:07:12:775,-292,-316,15176,-131,69,-96,0
00:07:13:028,-312,-244,15044,-150,49,-125,0
00:07:13:280,-196,-340,14988,-154,70,-111,0
00:07:13:533,-268,-236,14864,-169,23,-125,0
00:07:13:785,-248,-316,14972,-152,77,-109,0
00:07:14:037,-220,-336,15000,-148,78,-102,0
00:07:14:290,-332,-272,14916,-121,37,-112,0
00:07:14:543,-124,-204,14948,-144,112,-111,0
00:07:14:793,-220,-232,14780,-135,2,-112,0
00:07:15:048,-352,-324,14668,-166,100,-105,0
00:07:15:301,-688,-2612,17288,-302,858,-137,0
00:07:15:553,-24,-1260,16812,-1293,-837,-72,0
00:07:15:807,10700,-5520,1156,-2503,-646,138,1
00:07:16:055,-1748,-12,30368,1059,21,-70,1
00:07:16:310,-836,1392,28088,2104,-177,-112,1
00:07:16:564,-9980,-2808,19956,541,-6311,132,1
00:07:16:812,1992,-680,9644,-237,175,-92,1
00:07:17:066,3068,1408,12116,-238,816,-101,0
00:07:17:320,-500,2328,11528,-542,-585,-142,0
00:07:17:571,-2364,432,14868,-1029,50,-135,0
00:07:17:825,-2104,-3900,19524,-583,-579,-58,0
00:07:18:071,-224,64,19528,-2,376,-190,0
00:07:18:328,-12,-1840,15192,1261,-512,-50,0
00:07:18:579,-576,-1168,22772,-8,-655,-27,1
00:07:18:833,504,-384,17760,-1430,637,-240,0
00:07:19:087,-1564,-3776,13380,2780,-384,-41,1
00:07:19:334,40,-852,17180,-86,365,-122,0
00:07:19:589,-288,-504,15684,260,337,-100,0
00:07:19:842,-284,-508,14868,-153,175,-117,1
00:07:20:093,-196,-332,14836,-150,97,-112,1
00:07:20:345,-244,-136,14216,-202,84,-132,0
00:07:20:600,-324,-2312,18688,-212,281,-127,0
00:07:20:849,-132,896,14240,-42,-44,-127,0
00:07:21:101,-380,-592,15376,-265,51,-95,0
00:07:21:356,-164,-1484,15760,-166,48,-108,0
00:07:21:607,-480,536,15620,-188,-92,-106,0
00:07:21:860,-580,-452,14800,-181,193,-125,0
00:07:22:112,-280,-80,15476,-178,105,-112,0
00:07:22:364,-324,-204,15448,-151,44,-113,0
00:07:22:616,-260,-452,15388,-166,70,-110,0
00:07:22:868,-392,-316,15376,-64,52,-124,0
00:07:23:121,-220,-368,14856,-173,46,-140,0
00:07:23:373,-188,-180,14976,-172,72,-123,0
00:07:23:626,-224,-384,14932,-186,49,-130,0
00:07:23:878,-276,-348,15220,-154,36,-107,0
00:07:24:130,-232,-272,14992,-145,76,-110,0
00:07:24:383,-244,-364,15144,-149,52,-113,0
00:07:24:635,-300,-360,15124,-148,56,-116,0
00:07:24:887,-328,-428,15008,-149,61,-118,0
00:07:25:140,-312,-296,14976,-171,76,-111,0
00:07:25:392,-260,-360,15040,-158,79,-103,0
00:07:25:645,-296,-392,14996,-166,67,-118,0
00:07:25:897,-324,-568,14876,-141,37,-119,0
00:07:26:147,-240,220,14528,-96,99,-133,0
00:07:26:401,-320,-836,14868,-157,60,-136,0
00:07:26:652,548,-1140,12624,847,-13,-62,0
00:07:26:908,1484,-436,21040,-1034,909,-233,1
00:07:27:160,-5724,-3920,5464,-123,572,-260,1
00:07:27:411,-52,1468,18860,-357,-476,-208,0
00:07:27:666,3172,1384,13432,-1839,2537,-226,1
00:07:27:913,356,528,18192,2911,-158,20,1
00:07:28:170,1192,264,15728,-1935,-346,-284,0
00:07:28:420,1336,-972,21328,1267,987,124,0
00:07:28:676,-1576,480,14196,-2104,-1738,-292,0
00:07:28:925,-132,628,13604,-1779,26,-271,0
00:07:29:177,-140,-72,19312,-482,-594,-93,0
00:07:29:431,1160,-1924,15788,374,1097,-165,1
00:07:29:682,1008,-40,16864,-593,-436,-97,1
00:07:29:932,-564,2092,9472,349,-1,-194,1
00:07:30:189,-3212,-5772,32767,-2369,67,-259,1
00:07:30:438,-652,428,15144,-199,674,-144,1
00:07:30:692,1488,-3112,14032,1016,-95,-59,1
00:07:30:940,4,-992,12084,198,-194,-75,1
00:07:31:197,-452,-1188,17060,188,-407,-72,0
00:07:31:449,-116,-384,16804,-165,-71,-100,0
00:07:31:700,-300,-120,15040,-142,45,-129,1
00:07:31:953,-224,-456,14528,-146,99,-135,0
00:07:32:204,-284,208,13700,-41,776,-113,1
00:07:32:459,-156,-96,15384,-223,-238,-110,0
00:07:32:711,-276,-568,15876,-147,194,-136,0
00:07:32:961,-256,-424,14660,-143,30,-90,0
00:07:33:216,-132,-552,14864,-433,107,-126,0
00:07:33:468,-344,-628,16720,-329,313,-135,0
00:07:33:715,-264,-4,15024,61,-98,-82,0
00:07:33:972,-228,-508,14740,-137,126,-118,1
00:07:34:225,-116,-1924,16136,-113,-1,-120,0
00:07:34:476,-248,124,14272,-225,-251,-84,1
00:07:34:728,-528,-504,15348,-236,98,-109,1
00:07:34:981,-312,-720,14744,-202,36,-112,0
00:07:35:233,-172,-328,15248,-179,32,-128,0
00:07:35:486,-284,-240,15044,-185,142,-101,0
00:07:35:738,-356,-492,14980,-144,62,-111,0
00:07:35:990,-212,-348,15100,-152,85,-133,0
00:07:36:243,-356,-344,15048,-165,90,-109,0
00:07:36:495,-224,-300,14948,-168,64,-115,0
00:07:36:747,-236,-220,14980,-152,79,-137,1
00:07:37:000,-240,-308,14956,-149,83,-115,1
00:07:37:252,-224,-192,14752,-163,87,-124,0
00:07:37:505,-340,-380,14900,-149,79,-119,0
00:07:37:757,-164,-332,14956,-141,41,-143,0
00:07:38:009,-200,-244,15292,-130,52,-104,0
00:07:38:262,-276,-404,14820,-147,78,-133,0
00:07:38:516,1048,-3452,17628,-180,-353,-106,1
00:07:38:768,-392,-824,17624,1324,-1138,-85,0
00:07:39:021,1056,-4060,18868,-3612,224,-230,0
00:07:39:274,2356,-1224,-7292,-3284,2435,-161,1
00:07:39:523,-928,-3344,24588,68,-1499,-87,1
00:07:39:778,2064,6196,-1680,-1143,1276,-123,0
00:07:40:029,5348,-16380,32767,472,1004,-88,1
00:07:40:279,-3124,596,9964,-997,640,-201,0
00:07:40:531,-640,-532,24040,444,-222,-53,0
00:07:40:786,-2196,2912,3332,-1933,188,-337,0
00:07:41:035,-1780,1420,18364,345,-39,10,1
00:07:41:288,892,620,20124,-2239,242,-281,0
00:07:41:545,7060,-3320,13436,-1473,3818,-206,0
00:07:41:793,-100,-1696,13312,-85,2977,63,1
00:07:42:046,1808,424,10776,-611,2536,-188,1
00:07:42:302,2808,-1716,13000,-1845,4467,-294,0
00:07:42:551,-272,-344,17444,-502,-91,-165,0
00:07:42:802,-360,-312,15448,-422,12,-130,0
00:07:43:055,-404,-444,15488,-305,92,-155,0
00:07:43:307,-248,-244,15064,-215,84,-128,0
00:07:43:559,-208,1132,15732,-258,74,-141,0
00:07:43:812,-196,-816,14148,-100,73,-112,0
00:07:44:063,64,2140,12924,-236,-14,-103,0
00:07:44:316,-288,-208,15060,-116,-3,-120,0
00:07:44:569,-328,-232,15608,-210,14,-137,0
00:07:44:821,-152,-1024,14856,-73,-63,-99,0
00:07:45:073,-424,-100,14848,-173,68,-112,0
00:07:45:327,-288,-372,14860,-170,135,-119,0
00:07:45:578,-268,-204,14856,-127,64,-111,0
00:07:45:829,-248,-212,15140,-94,91,-105,0
00:07:46:083,-188,-404,14664,-132,66,-100,0
00:07:46:336,-232,-300,14856,-114,100,-108,0
00:07:46:587,-416,-304,15004,-137,83,-103,0
00:07:46:838,-388,-384,15040,-106,47,-93,0
00:07:47:092,-276,-312,14904,-184,76,-116,0
00:07:47:344,-220,-344,15072,-163,90,-108,0
00:07:47:597,-316,-268,14848,-142,61,-133,0
00:07:47:849,-284,-392,15048,-162,66,-124,0
00:07:48:101,-240,-212,14984,-142,75,-103,0
00:07:48:353,-192,-348,14912,-143,65,-95,0
00:07:48:606,-276,-244,14988,-183,68,-129,0
00:07:48:857,-316,-644,15072,-97,42,-120,0
00:07:49:114,1440,-3552,16432,-223,2512,-182,0
00:07:49:367,-5568,2716,6132,-3260,-2441,-438,0
00:07:49:614,-292,-2264,25196,346,67,-98,1
00:07:49:869,316,-1496,10356,795,-857,-101,0
00:07:50:122,-1208,-1752,8944,-49,3460,-353,1
00:07:50:373,-360,-4104,12180,444,-112,-58,0
00:07:50:628,-1348,664,18604,-1869,-892,-197,1
00:07:50:882,-1292,-3880,26232,-1316,-585,-174,0
00:07:51:133,2088,-2612,-4900,-2555,-2331,-13,1
00:07:51:380,-2896,-1368,8504,1062,735,6,0
00:07:51:636,-692,2564,2476,-2027,2456,-291,0
00:07:51:887,2532,-624,3936,-1990,-736,-82,0
00:07:52:142,3980,-3044,7444,-1620,1243,-101,0
00:07:52:393,452,-1508,-32056,-20,-5485,343,1
00:07:52:645,-3796,-4144,31216,935,-2612,-4,1
00:07:52:898,1340,2012,7540,-673,-274,-146,0
00:07:53:148,456,-124,15688,-657,194,-172,0
00:07:53:401,-284,-428,15432,-150,263,-153,1
00:07:53:651,-272,-412,14760,-119,6,-123,0
00:07:53:905,-296,-408,15060,-174,21,-118,0
00:07:54:157,-296,-380,14880,-173,44,-134,1
00:07:54:412,1404,1764,14200,350,-1912,-245,0
00:07:54:664,-340,-320,15604,-477,-340,-163,1
00:07:54:915,112,-1784,17520,-343,-17,-129,1
00:07:55:167,-420,-316,15560,-193,163,-127,0
00:07:55:419,-276,-412,15396,-117,242,-98,0
00:07:55:671,-392,-456,13800,-218,345,-92,1
00:07:55:922,0,-312,15552,-135,-125,-138,0
00:07:56:177,-316,-424,14792,-104,108,-116,0
00:07:56:428,-280,-308,15172,-154,38,-103,0
00:07:56:680,-292,-224,14904,-181,69,-111,1
00:07:56:933,-268,-400,15060,-166,80,-117,0
00:07:57:185,-276,-344,14912,-158,59,-104,0
00:07:57:437,-312,-400,14996,-145,63,-120,0
00:07:57:690,-360,-256,14984,-148,75,-132,0
00:07:57:942,-252,-324,15000,-153,60,-120,0
00:07:58:194,-176,-476,14976,-114,85,-108,1
00:07:58:447,-316,-344,14852,-141,51,-107,0
00:07:58:699,-288,-364,15144,-161,58,-116,0
00:07:58:951,-272,-432,15096,-152,72,-122,0
00:07:59:204,-268,-488,15160,-151,57,-120,0
00:07:59:456,-232,-276,14740,-167,53,-153,0
00:07:59:711,-172,-1152,15220,-451,-1001,-74,0
00:07:59:964,-2160,-2252,15640,656,-1313,-40,1
00:08:00:213,392,-8072,31300,542,-212,-84,1
00:08:00:467,4052,-1752,15580,-21,-180,-117,1
00:08:00:717,1748,116,10904,-448,-3,-110,0
00:08:00:972,-2464,1888,6140,1584,1387,-140,1
00:08:01:224,988,-1004,14296,-640,281,-162,0
00:08:01:476,-6380,-516,14164,-79,-2723,53,1
00:08:01:729,396,-2912,15000,-1142,-74,-175,0
00:08:01:982,-3200,-6788,20008,979,-2947,11,0
00:08:02:230,3492,1432,23120,71,664,-28,1
00:08:02:484,4464,4468,13288,293,-213,-5,0
00:08:02:740,-5804,-944,13608,-263,-3307,-10,1
00:08:02:990,-3356,-5712,23688,636,-684,15,0
00:08:03:242,4952,272,18896,512,-1053,-101,1
00:08:03:493,-68,-1424,11400,143,833,-71,0
00:08:03:746,1900,-2480,19324,716,962,-16,0
00:08:04:000,-1692,-192,16468,-909,393,-131,0
00:08:04:253,1696,184,18524,-1640,1066,-298,1
00:08:04:505,4448,-3388,14456,-408,-346,-37,1
00:08:04:760,-1048,-1360,19236,-455,-1066,-67,0
00:08:05:008,340,-2584,17860,-19,631,-120,0
00:08:05:259,-440,-28,15020,-291,46,-110,0
00:08:05:511,-212,-408,15876,-119,2,-122,0
00:08:05:764,-340,-320,15176,-158,5,-129,0
00:08:06:017,-212,-360,15088,-153,83,-125,0
00:08:06:269,-268,-288,15248,-161,50,-128,0
00:08:06:521,-232,-360,15456,-116,30,-106,0
00:08:06:775,-312,-364,15568,-100,-25,-137,0
00:08:07:027,-656,484,13992,-486,-188,-125,0
00:08:07:276,-320,-760,15128,15,79,-115,1
00:08:07:531,-180,-384,14088,-236,45,-122,1
00:08:07:782,-140,356,15908,-85,159,-107,0
00:08:08:035,-388,-364,14572,-155,69,-129,0
00:08:08:288,-308,-540,14976,-166,92,-106,0
00:08:08:540,-300,-108,14900,-157,43,-111,0
00:08:08:793,-260,-388,14960,-150,55,-129,0
00:08:09:044,-248,-340,14940,-116,72,-95,0
00:08:09:297,-280,-280,15128,-145,70,-126,0
00:08:09:549,-180,-392,15156,-177,66,-112,0
00:08:09:802,-264,-296,15024,-188,75,-124,0
00:08:10:054,-284,-432,14980,-136,95,-115,0
00:08:10:306,-244,-316,15000,-170,61,-128,0
00:08:10:558,-272,-404,15128,-167,54,-95,0
00:08:10:811,-260,-376,15036,-157,73,-130,0
00:08:11:060,-72,1944,7980,11,154,-146,0
00:08:11:315,1400,920,8716,1565,-1219,35,1
00:08:11:570,3116,3004,12672,-937,1650,-113,0
00:08:11:822,16584,760,-2324,-1073,6070,-82,1
00:08:12:076,1648,-6292,32724,2107,2701,-145,1
00:08:12:325,832,-356,20672,1149,667,-272,1
00:08:12:578,-472,-372,17400,-777,713,-332,0
00:08:12:831,3648,2232,12736,-2110,651,-37,0
00:08:13:085,-2528,4800,-4800,-646,-3488,-39,1
00:08:13:339,-3788,-3828,31336,403,-1501,-151,0
00:08:13:589,-2980,-3240,28964,1524,253,-36,1
00:08:13:843,-1784,-2248,28024,-447,-717,-235,0
00:08:14:091,1540,-2296,24512,-1,-529,-37,0
00:08:14:344,-3780,2296,7860,865,-2418,76,1
00:08:14:599,6304,-24,19296,-1362,2265,-289,1
00:08:14:850,-1388,-1780,24760,-61,969,-95,1
00:08:15:103,-1536,-1492,16976,-110,190,-45,0
00:08:15:355,1176,-432,10728,-450,657,-140,0
00:08:15:608,-968,2884,10368,-411,-209,-104,0
00:08:15:857,-404,-52,15188,-176,150,-93,0
00:08:16:112,-276,-680,15264,-146,-22,-124,0
00:08:16:363,-236,-308,14748,-180,79,-135,0
00:08:16:615,-108,-452,14612,-210,233,-94,0
00:08:16:867,-500,212,13768,197,-1122,-75,0
00:08:17:123,-164,-1824,15300,-211,-382,-121,0
00:08:17:372,-176,468,13628,-196,197,-147,0
00:08:17:625,-248,-188,15584,-150,61,-120,0
00:08:17:877,-352,-528,15216,-172,57,-130,1
00:08:18:129,-284,-588,15156,-163,77,-116,0
00:08:18:381,-276,-400,15004,-135,99,-121,0
00:08:18:634,-196,-372,15044,-137,84,-108,0
00:08:18:886,-184,-284,14924,-138,83,-116,0
00:08:19:139,-308,-292,15096,-157,72,-132,0
00:08:19:390,2240,572,16600,2286,3313,32,1
00:08:19:642,-1812,-872,19732,439,67,-63,1
00:08:19:898,1716,-1140,16200,-545,321,-158,0
00:08:20:147,-188,-672,15704,-16,56,-129,0
00:08:20:399,-104,-240,15460,-72,175,-98,0
00:08:20:654,4248,4960,13604,-743,1524,-28,1
00:08:20:904,-304,-820,15392,-78,264,-97,0
00:08:21:158,-3432,2460,3792,964,-2070,-26,0
00:08:21:409,372,164,13632,-129,213,-133,0
00:08:21:663,3312,-3540,23640,604,735,-179,1
00:08:21:915,-228,84,16068,-1659,1227,-265,1
00:08:22:170,4060,-2516,8944,-1443,-646,-143,0
00:08:22:420,-52,3940,4864,-3012,-220,-132,0
00:08:22:677,15188,-5656,32767,-1712,7506,-311,1
00:08:22:923,68,-1144,13444,507,238,-102,0
00:08:23:176,284,1032,9492,1214,-1428,-36,0
00:08:23:430,-1152,3252,9388,-1004,329,-167,1
00:08:23:682,-8020,-9312,32767,1657,5,-147,1
00:08:23:939,-4144,-1520,25556,-2889,-2863,-299,0
00:08:24:186,3832,1932,14236,-1821,203,-61,1
00:08:24:439,-536,-4596,28604,1105,890,-69,1
00:08:24:690,3584,268,12888,-693,180,-110,0
00:08:24:945,356,-948,27268,-1448,-938,-222,0
00:08:25:198,-7156,4216,148,-1067,-1669,-193,0
00:08:25:448,-4780,1532,7872,1069,-2455,78,0
00:08:25:699,-2592,-28,13892,611,-696,-17,0
00:08:25:951,-44,-804,15304,-31,118,-101,0
00:08:26:206,1896,-4948,20368,1823,2553,-92,0
00:08:26:457,696,-704,13744,-798,-768,-130,0
00:08:26:708,836,-968,18856,-223,501,-87,0
00:08:26:961,720,-2280,26252,134,-824,-70,1
00:08:27:215,928,-2416,21612,-991,-295,-237,0
00:08:27:466,-368,-1268,17832,358,300,-90,0
00:08:27:719,-136,-968,16868,42,-265,-101,0
00:08:27:972,-1664,536,15608,-658,-122,-117,0
00:08:28:224,304,-556,16736,-104,-146,-123,0
00:08:28:474,-924,352,9648,-904,342,-151,0
00:08:28:729,-1008,-2140,23316,-25,-173,-78,0
00:08:28:981,-2000,-1652,17980,-354,-8,-85,0
00:08:29:232,1216,708,15424,-639,293,-188,0
00:08:29:481,684,-44,16108,159,904,-43,0
00:08:29:738,3940,-280,18056,-482,984,-114,0
00:08:29:992,-1760,-4640,23352,1266,-847,-24,0
00:08:30:246,-2852,5556,-3336,-1653,-1402,-52,0
00:08:30:495,3800,-1836,7996,203,1376,-165,0
00:08:30:744,-176,16,14020,-342,33,-147,0
00:08:31:000,-1072,3156,5480,-224,-668,-187,0
00:08:31:252,-1904,-5112,25456,790,900,-74,0
00:08:31:504,-2804,-3020,23132,-5,771,-229,0
00:08:31:756,4216,-1160,16200,29,2064,-124,0
00:08:32:011,-6224,732,1492,-1125,-3231,-154,0
00:08:32:259,728,1124,14284,962,-376,-16,1
00:08:32:514,-3828,-1996,6932,1973,-922,-23,1
00:08:32:767,-600,-2044,22368,-22,-106,-158,0
00:08:33:015,312,1280,12380,159,233,-72,0
00:08:33:271,-3996,864,1196,-856,-3114,-190,1
00:08:33:524,-4936,-6792,27552,3594,1130,25,1
00:08:33:775,-1328,-936,19360,532,-635,-12,0
00:08:34:030,4908,-1228,23248,-1729,2774,-300,1
00:08:34:281,1116,-2304,11144,1761,-1257,59,0
00:08:34:530,120,-1356,14568,435,817,-87,0
00:08:34:783,2400,700,13552,-919,709,-200,0
00:08:35:039,-1636,1056,13352,-713,-488,-153,0
00:08:35:291,-2112,-1972,18748,-826,-66,-192,0
00:08:35:540,-1080,908,21612,857,-555,-89,0
00:08:35:794,512,-3444,24348,723,-184,-125,0
00:08:36:044,128,-884,22424,1360,835,-94,0
00:08:36:296,220,624,25376,-603,690,-144,0
00:08:36:549,1760,-32,16128,-1228,248,-96,0
00:08:36:801,3252,-432,22284,-25,511,-80,0
00:08:37:053,400,-1208,15632,836,992,-67,0
00:08:37:309,-492,-456,15284,-506,-330,-156,0
00:08:37:559,1616,200,13108,-860,113,-209,0
00:08:37:811,-796,-1624,27248,619,96,-123,0
00:08:38:070,-2856,-4396,24576,-1210,-1492,-171,0
00:08:38:318,272,-8072,32767,-428,5146,-380,1
00:08:38:568,-1196,356,7708,1056,-603,-96,0
00:08:38:821,-3124,3308,14344,-1698,4,-253,0
00:08:39:073,900,-812,13332,-933,496,-157,0
00:08:39:322,-416,-240,14920,12,-7,-95,0
00:08:39:578,-3228,-588,11684,-57,-768,-77,0
00:08:39:832,3676,-984,16800,-770,2167,-243,0
00:08:40:080,-484,2500,5652,515,33,-210,0
00:08:40:334,5872,212,22932,-572,422,-227,1
00:08:40:587,1308,104,21052,-101,936,-175,0
00:08:40:839,212,-1880,8364,-246,-321,-74,1
00:08:41:094,-1276,-1696,18944,-431,405,-200,0
00:08:41:346,248,-932,19388,-1245,-242,-215,0
00:08:41:595,312,-448,16080,-121,394,-91,0
00:08:41:850,-2480,-1872,14912,117,139,-139,0
00:08:42:101,1404,-1776,13960,601,329,-77,0
00:08:42:352,68,-2572,25184,229,982,-170,1
00:08:42:607,-2332,-4308,29576,807,759,-136,0
00:08:42:857,1552,5672,6916,-1605,14,-20,1
00:08:43:111,5768,-1248,24104,1538,1313,24,1
00:08:43:364,2476,-1200,17388,206,-116,-155,1
00:08:43:616,1692,-1888,23932,633,-77,-157,0
00:08:43:866,392,-332,16980,-633,99,-151,0
00:08:44:119,12,-1220,16604,121,140,-118,0
00:08:44:373,3724,-300,18208,-934,607,-183,0
00:08:44:624,852,-596,16092,-115,-62,-141,0
00:08:44:880,-5144,-6596,21612,1817,-2319,-3,1
00:08:45:127,20,-468,17064,797,2724,-45,0
00:08:45:380,-5412,860,6256,-423,119,-97,0
00:08:45:637,1008,1168,10540,-1724,1307,-263,1
00:08:45:886,-652,1268,12144,-608,15,-190,1
00:08:46:139,-684,-508,13868,-539,258,-127,0
00:08:46:391,1688,-760,18600,-275,269,-67,0
00:08:46:647,-16296,-6544,30604,1856,-2429,24,1
00:08:46:896,20,4268,1584,-1082,-1699,-206,0
00:08:47:149,1304,-572,17312,-297,-650,-19,0
00:08:47:402,-1104,-8756,29448,1832,248,-70,0
00:08:47:657,-3988,-3660,29004,-1399,-372,-208,0
00:08:47:908,-844,-3292,24248,-193,-434,-165,0
00:08:48:160,-1284,-920,12040,-519,-467,-146,0
00:08:48:412,-776,3208,9416,-2012,-1581,-187,0
00:08:48:661,372,-124,19864,-600,408,-84,0
00:08:48:917,-1000,3788,9996,-1360,-168,-134,0
00:08:49:169,-10704,-168,8168,864,-4451,-219,1
00:08:49:422,-4808,-628,13956,-109,-2303,-43,0
00:08:49:672,-1652,788,12920,332,1445,-175,0
00:08:49:922,-748,408,12540,455,-837,-36,1
00:08:50:176,-280,120,14016,-143,220,-127,0
00:08:50:428,-284,-368,15028,-163,91,-135,1
00:08:50:679,-320,-260,15024,-147,21,-97,0
00:08:50:933,-312,-408,15120,-160,67,-115,1
00:08:51:185,-320,-428,14988,-135,67,-113,0
00:08:51:438,-204,-284,15052,-167,103,-111,0
00:08:51:689,-240,-376,15056,-151,56,-116,0
00:08:51:942,-280,-340,15068,-164,62,-122,0
00:08:52:193,-388,-352,14992,-131,45,-94,0
00:08:52:446,-264,-368,14980,-162,66,-104,0
00:08:52:699,-240,-336,14820,-150,66,-102,0
00:08:52:951,-240,-332,15032,-154,59,-121,0
00:08:53:204,-180,-352,14984,-163,72,-121,0
00:08:53:456,-184,-352,14984,-162,67,-125,0
00:08:53:708,-232,-324,15092,-173,58,-109,0
00:08:53:961,-236,-352,15000,-153,70,-114,0
00:08:54:213,-384,-320,15140,-166,69,-118,0
00:08:54:465,-280,-336,14880,-144,66,-103,0
00:08:54:717,-252,-376,15072,-155,85,-114,0
00:08:54:970,-240,-348,15040,-153,44,-117,0
00:08:55:221,-364,-412,15064,-136,91,-98,0
00:08:55:474,-196,-308,14948,-148,59,-102,0
00:08:55:726,-224,-360,15000,-154,68,-97,0
00:08:55:979,-276,-376,14920,-154,59,-116,0
00:08:56:231,-296,-344,15008,-156,72,-123,0
00:08:56:484,-260,-340,14932,-165,72,-115,0
00:08:56:735,-316,-388,14988,-146,62,-97,0
00:08:56:988,-200,-308,14944,-147,86,-119,0
00:08:57:241,-320,-284,14984,-170,74,-134,0
00:08:57:493,-248,-348,15016,-159,83,-139,0
00:08:57:745,-216,-424,15040,-163,76,-148,0
00:08:57:998,-324,-340,15012,-155,65,-105,0
00:08:58:250,-224,-400,14924,-161,77,-105,0
00:08:58:502,-320,-336,14972,-170,59,-128,0
00:08:58:755,-264,-404,15116,-145,82,-123,0
00:08:59:007,-232,-332,15028,-159,49,-142,0
00:08:59:259,-240,-372,15028,-135,53,-124,0
00:08:59:512,-200,-408,15076,-138,55,-129,0
00:08:59:763,-392,-280,15040,-174,77,-94,0
00:09:00:016,-324,-360,14972,-152,74,-121,0
00:09:00:269,-316,-372,15048,-171,85,-117,0
00:09:00:521,-188,-352,14980,-159,60,-112,0
00:09:00:773,-240,-220,14944,-145,64,-119,0
00:09:01:026,-260,-452,15068,-164,61,-135,0
00:09:01:278,-328,-288,15216,-149,82,-111,0
00:09:01:530,-384,-344,14996,-159,66,-115,0
00:09:01:783,-276,-288,14916,-169,75,-107,0
00:09:02:034,-216,-220,14856,-170,69,-98,0
00:09:02:287,-324,-420,14888,-143,63,-122,0
00:09:02:539,-232,-336,14968,-155,64,-131,0
00:09:02:791,-320,-340,14924,-113,88,-93,0
00:09:03:044,-200,-256,15048,-157,97,-129,0
00:09:03:296,-276,-300,14840,-158,79,-100,0
00:09:03:549,-240,-412,14904,-184,57,-122,0
00:09:03:801,-324,-380,14944,-165,79,-100,0
00:09:04:052,-232,-316,15012,-138,92,-95,0
00:09:04:306,-180,-292,15024,-145,34,-115,0
00:09:04:558,-180,-268,14980,-153,77,-132,0
00:09:04:811,-264,-404,15060,-163,62,-112,0
00:09:05:063,-228,-388,14916,-169,65,-128,0
00:09:05:315,-128,-380,14960,-143,65,-115,0
00:09:05:567,-272,-328,14944,-159,83,-119,0
00:09:05:819,-264,-388,14928,-147,44,-95,0
00:09:06:072,-276,-376,15000,-155,68,-134,0
00:09:06:324,-228,-324,15028,-140,65,-133,0
00:09:06:577,-168,-412,15072,-135,63,-124,0
00:09:06:829,-332,-392,15104,-141,75,-137,0
00:09:07:081,-216,-312,14928,-148,68,-106,0
00:09:07:334,-252,-316,14924,-164,60,-122,0
00:09:07:586,-320,-232,14800,-170,74,-131,0
00:09:07:838,-276,-420,15008,-162,73,-108,0
00:09:08:091,-296,-312,15032,-134,61,-127,0
00:09:08:343,-336,-288,14832,-144,54,-100,0
00:09:08:596,-260,-332,15024,-154,55,-122,0
00:09:08:847,-320,-424,15020,-141,61,-92,0
00:09:09:101,-180,-236,15092,-164,74,-117,0
00:09:09:353,-284,-428,15152,-166,67,-148,0
00:09:09:605,-276,-368,15048,-190,74,-117,0
00:09:09:857,-344,-280,14988,-157,70,-105,0
00:09:10:110,-308,-312,15016,-137,64,-109,0
00:09:10:362,-208,-372,14892,-141,65,-104,0
00:09:10:614,-356,-364,15036,-157,98,-113,0
00:09:10:867,-380,-392,15020,-160,62,-102,0
00:09:11:119,-312,-332,15080,-187,65,-118,0
00:09:11:372,-192,-328,15012,-131,58,-129,0
00:09:11:624,-204,-304,14896,-154,72,-145,0
00:09:11:876,-304,-324,15096,-134,59,-109,0
00:09:12:128,-264,-312,14908,-160,45,-109,0
00:09:12:381,-216,-328,15048,-153,36,-113,0
00:09:12:632,-160,-380,15032,-158,74,-94,0
00:09:12:885,-268,-256,15000,-153,49,-116,0
00:09:13:138,-252,-268,15056,-139,78,-117,0
00:09:13:390,-200,-268,15008,-141,82,-111,0
00:09:13:642,-352,-364,14980,-140,81,-128,0
00:09:13:895,-248,-340,14996,-155,83,-124,0
00:09:14:147,-256,-348,14956,-130,67,-106,0
00:09:14:399,-264,-332,15012,-141,50,-119,0
00:09:14:652,-248,-340,15016,-152,101,-94,0
00:09:14:904,-212,-332,15120,-147,73,-134,0
00:09:15:156,-216,-284,14944,-177,76,-111,0
00:09:15:408,-296,-392,15004,-149,75,-122,0
00:09:15:661,-364,-392,14916,-159,84,-121,0
00:09:15:913,-240,-416,15080,-151,67,-121,0
00:09:16:165,-312,-340,14980,-163,78,-125,0
00:09:16:418,-292,-328,15012,-167,69,-119,0
00:09:16:670,-304,-264,15152,-161,46,-110,0
00:09:16:922,-396,-272,15036,-157,60,-105,0
00:09:17:175,-396,-380,15012,-150,79,-129,0
00:09:17:427,-248,-272,14976,-131,49,-132,0
00:09:17:681,-256,-316,15052,-150,86,-127,0
00:09:17:932,-332,-428,15020,-160,74,-113,0
00:09:18:184,-296,-272,14972,-182,69,-120,0
00:09:18:436,-284,-308,15084,-171,79,-104,0
00:09:18:689,-232,-336,14940,-164,44,-111,0
00:09:18:941,-244,-296,15040,-162,54,-120,0
00:09:19:193,-240,-448,15028,-153,49,-105,0
00:09:19:446,-196,-272,15176,-149,70,-133,0
00:09:19:698,-284,-280,15052,-154,82,-120,0
00:09:19:950,-200,-276,14988,-154,99,-106,0
00:09:20:203,-272,-304,14956,-161,54,-109,0
00:09:20:455,-240,-376,14976,-168,93,-121,0
00:09:20:707,-272,-308,14992,-174,59,-120,0
00:09:20:959,-244,-260,15096,-195,95,-87,0
00:09:21:212,-248,-248,15016,-154,64,-103,0
00:09:21:464,-248,-316,14900,-155,92,-106,0
00:09:21:716,-296,-304,14888,-150,37,-97,0
00:09:21:968,-292,-324,14996,-182,69,-88,0
00:09:22:221,-232,-388,15048,-161,69,-122,0
00:09:22:474,-252,-316,15020,-157,87,-117,0
00:09:22:726,-308,-376,15032,-154,79,-115,0
00:09:22:978,-260,-352,14808,-149,60,-125,0
00:09:23:231,-208,-440,15032,-147,91,-117,0
00:09:23:483,-316,-328,15112,-158,60,-109,0
