elapsed_time,ax,ay,az,vibration
00:00:00.056,2288.0,-412.0,-18360.0,2122.60
00:00:00.089,2212.0,-436.0,-18320.0,2074.21
00:00:00.121,2264.0,-312.0,-18224.0,1982.74
00:00:00.153,2200.0,-284.0,-18328.0,2077.75
00:00:00.185,2212.0,-292.0,-18456.0,2206.38
00:00:00.217,2332.0,-456.0,-18384.0,2152.93
00:00:00.249,2276.0,-348.0,-18324.0,2084.09
00:00:00.281,2276.0,-272.0,-18284.0,2043.12
00:00:00.314,2280.0,-416.0,-18300.0,2062.18
00:00:00.346,2356.0,-420.0,-18208.0,1980.60
00:00:00.378,2324.0,-444.0,-18172.0,1941.38
00:00:00.410,2164.0,-352.0,-18320.0,2066.72
00:00:00.443,2308.0,-336.0,-18316.0,2079.90
00:00:00.475,2212.0,-424.0,-18412.0,2165.24
00:00:00.507,2316.0,-392.0,-18252.0,2018.53
00:00:00.539,2228.0,-316.0,-18388.0,2141.18
00:00:00.571,2300.0,-320.0,-18492.0,2253.23
00:00:00.603,2332.0,-316.0,-18364.0,2130.17
00:00:00.635,2348.0,-416.0,-18376.0,2146.07
00:00:00.668,2256.0,-372.0,-18328.0,2086.07
00:00:00.699,2296.0,-400.0,-18388.0,2151.11
00:00:00.730,2208.0,-532.0,-18364.0,2119.91
00:00:00.763,2300.0,-416.0,-18268.0,2032.92
00:00:00.795,2368.0,-416.0,-18316.0,2089.12
00:00:00.827,2304.0,-292.0,-18240.0,2003.26
00:00:00.859,2176.0,-344.0,-18308.0,2056.07
00:00:00.892,2316.0,-368.0,-18316.0,2081.51
00:00:00.924,2288.0,-380.0,-18320.0,2082.23
00:00:00.956,2272.0,-332.0,-18256.0,2015.83
00:00:00.989,2280.0,-424.0,-18388.0,2149.66
00:00:01.021,2232.0,-380.0,-18296.0,2051.56
00:00:01.052,2220.0,-268.0,-18376.0,2127.55
00:00:01.085,2208.0,-388.0,-18276.0,2028.98
00:00:01.116,2276.0,-308.0,-18436.0,2194.51
00:00:01.148,2196.0,-452.0,-18328.0,2080.62
00:00:01.179,2336.0,-388.0,-18504.0,2270.90
00:00:01.212,2220.0,-368.0,-18324.0,2077.66
00:00:01.244,2212.0,-312.0,-18428.0,2178.91
00:00:01.276,2284.0,-400.0,-18228.0,1990.89
00:00:01.308,2344.0,-316.0,-18300.0,2068.21
00:00:01.341,2248.0,-444.0,-18328.0,2086.69
00:00:01.373,2172.0,-408.0,-18344.0,2092.64
00:00:01.405,2320.0,-424.0,-18412.0,2178.43
00:00:01.438,2264.0,-380.0,-18388.0,2146.75
00:00:01.470,2228.0,-360.0,-18400.0,2153.90
00:00:01.502,2296.0,-440.0,-18432.0,2195.66
00:00:01.534,2288.0,-396.0,-18272.0,2034.95
00:00:01.567,2272.0,-292.0,-18332.0,2090.56
00:00:01.599,2188.0,-352.0,-18348.0,2097.35
00:00:01.631,2316.0,-416.0,-18316.0,2082.53
00:00:01.663,2252.0,-392.0,-18368.0,2125.69
00:00:01.696,2228.0,-368.0,-18392.0,2146.11
00:00:01.728,2284.0,-368.0,-18432.0,2192.62
00:00:01.759,2276.0,-344.0,-18392.0,2151.48
00:00:01.792,2260.0,-404.0,-18320.0,2079.29
00:00:01.824,2232.0,-436.0,-18252.0,2009.14
00:00:01.856,2260.0,-464.0,-18312.0,2072.77
00:00:01.888,2336.0,-384.0,-18372.0,2139.90
00:00:01.920,2188.0,-352.0,-18252.0,2002.05
00:00:01.952,2212.0,-384.0,-18376.0,2128.64
00:00:01.984,2236.0,-380.0,-18196.0,1952.81
00:00:02.017,2220.0,-448.0,-18464.0,2218.38
00:00:02.048,2328.0,-392.0,-18380.0,2146.99
00:00:02.080,2264.0,-416.0,-18232.0,1992.74
00:00:02.112,2280.0,-376.0,-18324.0,2085.13
00:00:02.145,2376.0,-344.0,-18356.0,2128.33
00:00:02.177,2280.0,-428.0,-18408.0,2169.60
00:00:02.208,2208.0,-412.0,-18284.0,2037.45
00:00:02.240,2280.0,-480.0,-18348.0,2111.35
00:00:02.273,2172.0,-396.0,-18416.0,2163.87
00:00:02.304,2248.0,-432.0,-18268.0,2026.87
00:00:02.336,2260.0,-452.0,-18232.0,1993.10
00:00:02.369,2260.0,-340.0,-18304.0,2062.13
00:00:02.401,2272.0,-472.0,-18300.0,2062.54
00:00:02.433,2292.0,-408.0,-18256.0,2019.84
00:00:02.465,2272.0,-452.0,-18348.0,2109.66
00:00:02.498,2244.0,-332.0,-18388.0,2143.39
00:00:02.530,2256.0,-372.0,-18296.0,2054.32
00:00:02.563,2220.0,-380.0,-18304.0,2058.05
00:00:02.595,2156.0,-292.0,-18316.0,2060.77
00:00:02.627,2236.0,-368.0,-18300.0,2055.77
00:00:02.658,2208.0,-420.0,-18372.0,2124.97
00:00:02.691,2188.0,-292.0,-18248.0,1997.03
00:00:02.723,2124.0,-428.0,-18460.0,2202.72
00:00:02.755,2184.0,-340.0,-18532.0,2279.35
00:00:02.787,2276.0,-392.0,-18408.0,2168.31
00:00:02.820,2280.0,-380.0,-18328.0,2089.18
00:00:02.852,2288.0,-412.0,-18224.0,1987.69
00:00:02.884,2232.0,-392.0,-18336.0,2091.51
00:00:02.917,2268.0,-504.0,-18340.0,2102.57
00:00:02.949,2244.0,-312.0,-18376.0,2131.14
00:00:02.981,2324.0,-444.0,-18308.0,2076.25
00:00:03.012,2268.0,-328.0,-18212.0,1971.61
00:00:03.045,2176.0,-360.0,-18324.0,2072.26
00:00:03.077,2192.0,-348.0,-18388.0,2137.46
00:00:03.110,2348.0,-324.0,-18372.0,2140.27
00:00:03.141,2288.0,-464.0,-18320.0,2084.15
00:00:03.174,2232.0,-300.0,-18332.0,2085.81
00:00:03.206,2316.0,-372.0,-18276.0,2041.92
00:00:03.238,2320.0,-424.0,-18268.0,2035.61
00:00:03.271,2304.0,-372.0,-18372.0,2135.64
00:00:03.303,2340.0,-328.0,-18432.0,2198.84
00:00:03.335,2248.0,-420.0,-18296.0,2054.37
00:00:03.368,2192.0,-436.0,-18376.0,2127.41
00:00:03.400,2296.0,-404.0,-18208.0,1972.64
00:00:03.432,2284.0,-388.0,-18460.0,2220.81
00:00:03.463,2276.0,-360.0,-18392.0,2151.79
00:00:03.496,2332.0,-300.0,-18244.0,2010.88
00:00:03.528,2188.0,-392.0,-18380.0,2129.92
00:00:03.560,2260.0,-272.0,-18344.0,2100.69
00:00:03.593,2228.0,-404.0,-18220.0,1976.16
00:00:03.625,2296.0,-352.0,-18300.0,2062.83
00:00:03.657,2308.0,-508.0,-18212.0,1980.69
00:00:03.689,2208.0,-392.0,-18436.0,2187.89
00:00:03.722,2260.0,-480.0,-18300.0,2061.27
00:00:03.754,2244.0,-404.0,-18204.0,1962.24
00:00:03.786,2148.0,-436.0,-18420.0,2165.94
00:00:03.819,2216.0,-368.0,-18252.0,2005.71
00:00:03.851,2308.0,-432.0,-18448.0,2212.83
00:00:03.883,2340.0,-308.0,-18312.0,2079.47
00:00:03.915,2136.0,-400.0,-18252.0,1996.91
00:00:03.948,2280.0,-300.0,-18324.0,2083.74
00:00:03.979,2152.0,-384.0,-18404.0,2149.37
00:00:04.011,2292.0,-364.0,-18324.0,2086.37
00:00:04.044,2208.0,-352.0,-18256.0,2008.41
00:00:04.076,2256.0,-404.0,-18392.0,2150.25
00:00:04.108,2280.0,-372.0,-18168.0,1930.28
00:00:04.140,2312.0,-420.0,-18272.0,2038.48
00:00:04.173,2260.0,-336.0,-18412.0,2169.23
00:00:04.205,2288.0,-344.0,-18220.0,1982.32
00:00:04.237,2160.0,-308.0,-18396.0,2140.94
00:00:04.270,2244.0,-392.0,-18288.0,2045.33
00:00:04.302,2260.0,-388.0,-18392.0,2150.40
00:00:04.334,2228.0,-412.0,-18380.0,2135.13
00:00:04.366,2352.0,-340.0,-18364.0,2133.13
00:00:04.399,2336.0,-372.0,-18396.0,2163.46
00:00:04.431,2096.0,-368.0,-18196.0,1936.02
00:00:04.463,2264.0,-324.0,-18380.0,2137.75
00:00:04.496,2340.0,-440.0,-18380.0,2149.58
00:00:04.528,2320.0,-380.0,-18348.0,2114.00
00:00:04.560,2396.0,-364.0,-18364.0,2139.22
00:00:04.592,2156.0,-380.0,-18384.0,2129.89
00:00:04.625,2280.0,-416.0,-18308.0,2070.11
00:00:04.657,2308.0,-392.0,-18244.0,2009.59
00:00:04.688,2328.0,-436.0,-18248.0,2017.06
00:00:04.721,2264.0,-376.0,-18396.0,2154.61
00:00:04.752,2304.0,-404.0,-18432.0,2195.83
00:00:04.783,2288.0,-436.0,-18276.0,2039.82
00:00:04.815,2288.0,-356.0,-18340.0,2101.60
00:00:04.848,2340.0,-428.0,-18312.0,2081.86
00:00:04.880,2260.0,-324.0,-18328.0,2085.66
00:00:04.912,2256.0,-412.0,-18232.0,1991.67
00:00:04.945,2256.0,-432.0,-18232.0,1992.13
00:00:04.977,2252.0,-292.0,-18260.0,2016.66
00:00:05.009,2340.0,-356.0,-18232.0,2001.00
00:00:05.041,2232.0,-368.0,-18408.0,2162.47
00:00:05.074,2268.0,-348.0,-18284.0,2043.41
00:00:05.106,2272.0,-324.0,-18284.0,2043.47
00:00:05.138,2240.0,-392.0,-18312.0,2068.66
00:00:05.171,2260.0,-452.0,-18476.0,2235.20
00:00:05.202,2352.0,-412.0,-18396.0,2166.32
00:00:05.234,2300.0,-388.0,-18440.0,2202.93
00:00:05.266,2244.0,-372.0,-18428.0,2183.85
00:00:05.299,2244.0,-404.0,-18452.0,2208.34
00:00:05.331,2232.0,-380.0,-18328.0,2083.32
00:00:05.363,2284.0,-452.0,-18288.0,2051.62
00:00:05.395,2212.0,-380.0,-18272.0,2025.33
00:00:05.428,2284.0,-488.0,-18076.0,1842.26
00:00:05.460,2176.0,-276.0,-18308.0,2054.93
00:00:05.492,2212.0,-404.0,-18348.0,2101.27
00:00:05.525,2164.0,-380.0,-18444.0,2190.40
00:00:05.558,2240.0,-416.0,-18280.0,2037.43
00:00:05.590,2288.0,-448.0,-18392.0,2155.18
00:00:05.622,2288.0,-360.0,-18436.0,2196.92
00:00:05.654,2360.0,-324.0,-18288.0,2058.49
00:00:05.686,2280.0,-420.0,-18276.0,2038.46
00:00:05.718,2228.0,-468.0,-18264.0,2021.34
00:00:05.751,2304.0,-344.0,-18320.0,2083.52
00:00:05.783,2408.0,-448.0,-18292.0,2071.25
00:00:05.814,2236.0,-448.0,-18264.0,2021.82
00:00:05.847,2304.0,-284.0,-18516.0,2276.96
00:00:05.879,2312.0,-380.0,-18240.0,2005.87
00:00:05.911,2276.0,-360.0,-18432.0,2191.48
00:00:05.944,2256.0,-404.0,-18416.0,2174.07
00:00:05.975,2224.0,-420.0,-18352.0,2107.04
00:00:06.006,2324.0,-444.0,-18312.0,2080.22
00:00:06.038,2276.0,-436.0,-18368.0,2129.61
00:00:06.069,2108.0,-384.0,-18304.0,2044.99
00:00:06.102,2280.0,-404.0,-18184.0,1946.83
00:00:06.134,2216.0,-388.0,-18276.0,2029.95
00:00:06.165,2276.0,-412.0,-18196.0,1958.42
00:00:06.198,2288.0,-436.0,-18356.0,2119.18
00:00:06.230,2268.0,-456.0,-18272.0,2033.86
00:00:06.262,2180.0,-564.0,-18420.0,2173.13
00:00:06.293,2248.0,-504.0,-18236.0,1996.95
00:00:06.326,2396.0,-456.0,-18328.0,2105.57
00:00:06.358,2300.0,-400.0,-18292.0,2056.37
00:00:06.389,2224.0,-416.0,-18168.0,1924.34
00:00:06.422,2252.0,-392.0,-18364.0,2121.72
00:00:06.454,2228.0,-352.0,-18492.0,2245.06
00:00:06.486,2236.0,-428.0,-18364.0,2120.58
00:00:06.518,2332.0,-340.0,-18296.0,2063.15
00:00:06.551,2200.0,-324.0,-18432.0,2181.66
00:00:06.583,2272.0,-508.0,-18456.0,2218.26
00:00:06.615,2252.0,-512.0,-18268.0,2029.40
00:00:06.648,2252.0,-316.0,-18428.0,2183.78
00:00:06.680,2220.0,-376.0,-18408.0,2161.19
00:00:06.712,2220.0,-424.0,-18320.0,2074.89
00:00:06.743,2284.0,-336.0,-18396.0,2156.29
00:00:06.776,2204.0,-388.0,-18232.0,1984.83
00:00:06.808,2304.0,-292.0,-18412.0,2173.89
00:00:06.840,2308.0,-428.0,-18516.0,2280.20
00:00:06.871,2328.0,-444.0,-18216.0,1985.52
00:00:06.904,2252.0,-444.0,-18376.0,2134.80
00:00:06.936,2196.0,-372.0,-18292.0,2043.10
00:00:06.968,2376.0,-384.0,-18472.0,2244.14
00:00:07.001,2232.0,-360.0,-18264.0,2019.40
00:00:07.033,2268.0,-320.0,-18440.0,2197.71
00:00:07.065,2264.0,-376.0,-18312.0,2071.25
00:00:07.098,2276.0,-432.0,-18424.0,2185.08
00:00:07.130,2228.0,-388.0,-18292.0,2047.27
00:00:07.162,2208.0,-344.0,-18420.0,2171.05
00:00:07.193,2308.0,-464.0,-18324.0,2090.61
00:00:07.226,2224.0,-332.0,-18428.0,2180.69
00:00:07.258,2244.0,-444.0,-18240.0,1998.88
00:00:07.290,2328.0,-376.0,-18352.0,2118.89
00:00:07.322,2260.0,-352.0,-18360.0,2117.92
00:00:07.355,2228.0,-308.0,-18284.0,2037.82
00:00:07.386,2284.0,-380.0,-18376.0,2137.30
00:00:07.418,2340.0,-368.0,-18480.0,2247.19
00:00:07.450,2196.0,-380.0,-18328.0,2079.00
00:00:07.482,2380.0,-396.0,-18308.0,2082.30
00:00:07.514,2208.0,-384.0,-18304.0,2056.69
00:00:07.547,2148.0,-412.0,-18368.0,2113.76
00:00:07.579,2264.0,-436.0,-18276.0,2036.86
00:00:07.611,2200.0,-332.0,-18300.0,2050.76
00:00:07.643,2196.0,-356.0,-18380.0,2130.14
00:00:07.676,2252.0,-456.0,-18316.0,2075.56
00:00:07.708,2248.0,-320.0,-18308.0,2064.27
00:00:07.740,2252.0,-360.0,-18364.0,2121.07
00:00:07.772,2200.0,-392.0,-18372.0,2123.41
00:00:07.805,2316.0,-364.0,-18392.0,2156.82
00:00:07.837,2308.0,-368.0,-18400.0,2163.84
00:00:07.870,2092.0,-364.0,-18388.0,2126.20
00:00:07.902,2264.0,-360.0,-18524.0,2281.31
00:00:07.934,2300.0,-400.0,-18288.0,2052.40
00:00:07.966,2216.0,-400.0,-18264.0,2018.29
00:00:07.998,2256.0,-436.0,-18184.0,1944.60
00:00:08.031,2256.0,-384.0,-18436.0,2193.49
00:00:08.063,2268.0,-432.0,-18300.0,2061.07
00:00:08.095,2232.0,-280.0,-18372.0,2125.20
00:00:08.128,2260.0,-468.0,-18576.0,2334.82
00:00:08.160,2200.0,-396.0,-18348.0,2099.67
00:00:08.192,2260.0,-356.0,-18396.0,2153.72
00:00:08.223,2268.0,-464.0,-18360.0,2121.37
00:00:08.256,2308.0,-432.0,-18360.0,2125.54
00:00:08.287,2244.0,-328.0,-18284.0,2040.11
00:00:08.319,2224.0,-384.0,-18264.0,2018.92
00:00:08.352,2272.0,-400.0,-18368.0,2128.30
00:00:08.384,2348.0,-408.0,-18416.0,2185.56
00:00:08.416,2280.0,-264.0,-18268.0,2027.62
00:00:08.449,2288.0,-408.0,-18428.0,2189.98
00:00:08.481,2260.0,-436.0,-18320.0,2080.02
00:00:08.513,2268.0,-308.0,-18332.0,2090.33
00:00:08.545,2256.0,-436.0,-18304.0,2063.66
00:00:08.578,2248.0,-420.0,-18408.0,2165.51
00:00:08.610,2328.0,-272.0,-18300.0,2065.49
00:00:08.642,2324.0,-348.0,-18396.0,2161.48
00:00:08.675,2340.0,-268.0,-18428.0,2193.91
00:00:08.707,2384.0,-412.0,-18276.0,2051.44
00:00:08.739,2172.0,-424.0,-18396.0,2144.63
00:00:08.770,2332.0,-400.0,-18284.0,2052.46
00:00:08.803,2216.0,-472.0,-18376.0,2131.15
00:00:08.835,2344.0,-412.0,-18500.0,2268.46
00:00:08.867,2256.0,-336.0,-18336.0,2093.32
00:00:08.899,2284.0,-340.0,-18288.0,2049.21
00:00:08.931,2248.0,-384.0,-18260.0,2017.86
00:00:08.963,2344.0,-340.0,-18384.0,2151.95
00:00:08.995,2188.0,-396.0,-18404.0,2153.84
00:00:09.029,2260.0,-432.0,-18448.0,2206.94
00:00:09.060,2176.0,-364.0,-18452.0,2199.43
00:00:09.091,2244.0,-332.0,-18276.0,2032.24
00:00:09.123,2252.0,-376.0,-18292.0,2049.94
00:00:09.156,2296.0,-360.0,-18336.0,2098.70
00:00:09.188,2268.0,-256.0,-18316.0,2073.66
00:00:09.220,2272.0,-460.0,-18252.0,2014.62
00:00:09.253,2220.0,-420.0,-18356.0,2110.53
00:00:09.285,2296.0,-484.0,-18332.0,2097.56
00:00:09.316,2260.0,-384.0,-18264.0,2023.30
00:00:09.349,2244.0,-412.0,-18400.0,2156.91
00:00:09.381,2404.0,-368.0,-18352.0,2128.44
00:00:09.413,2192.0,-432.0,-18236.0,1988.35
00:00:09.445,2332.0,-464.0,-18248.0,2018.26
00:00:09.478,2252.0,-428.0,-18432.0,2190.00
00:00:09.510,2304.0,-352.0,-18324.0,2087.63
00:00:09.542,2272.0,-296.0,-18440.0,2197.80
00:00:09.575,2216.0,-448.0,-18428.0,2182.17
00:00:09.607,2344.0,-384.0,-18392.0,2160.74
00:00:09.639,2160.0,-412.0,-18300.0,2047.64
00:00:09.670,2244.0,-300.0,-18452.0,2206.37
00:00:09.703,2208.0,-420.0,-18352.0,2105.12
00:00:09.735,2268.0,-400.0,-18256.0,2016.69
00:00:09.767,2180.0,-476.0,-18280.0,2031.68
00:00:09.799,2332.0,-348.0,-18280.0,2047.43
00:00:09.832,2164.0,-428.0,-18284.0,2032.59
00:00:09.864,2224.0,-448.0,-18472.0,2226.79
00:00:09.896,2352.0,-432.0,-18328.0,2099.35
00:00:09.929,2224.0,-452.0,-18492.0,2246.74
00:00:09.961,2264.0,-344.0,-18288.0,2046.82
00:00:09.993,2304.0,-428.0,-18436.0,2200.34
00:00:10.025,2260.0,-512.0,-18368.0,2129.59
00:00:10.058,2324.0,-380.0,-18416.0,2181.95
00:00:10.090,2308.0,-412.0,-18400.0,2164.76
00:00:10.122,2252.0,-368.0,-18372.0,2129.17
00:00:10.155,2252.0,-396.0,-18396.0,2153.56
00:00:10.187,2236.0,-448.0,-18444.0,2200.44
00:00:10.219,2416.0,-452.0,-18324.0,2104.11
00:00:10.252,2264.0,-416.0,-18244.0,2004.65
00:00:10.284,2264.0,-308.0,-18308.0,2066.03
00:00:10.315,2352.0,-316.0,-18336.0,2104.93
00:00:10.347,2316.0,-396.0,-18348.0,2113.83
00:00:10.380,2168.0,-296.0,-18464.0,2209.20
00:00:10.412,2404.0,-372.0,-18264.0,2041.29
00:00:10.444,2256.0,-320.0,-18292.0,2049.37
00:00:10.476,2224.0,-312.0,-18204.0,1958.00
00:00:10.508,2304.0,-500.0,-18272.0,2039.47
00:00:10.540,2148.0,-492.0,-18300.0,2048.20
00:00:10.572,2228.0,-380.0,-18380.0,2134.44
00:00:10.605,2204.0,-296.0,-18636.0,2384.21
00:00:10.637,2288.0,-484.0,-18308.0,2072.76
00:00:10.669,2316.0,-272.0,-18264.0,2028.27
00:00:10.701,2224.0,-392.0,-18248.0,2003.21
00:00:10.734,2260.0,-400.0,-18148.0,1908.55
00:00:10.765,2252.0,-388.0,-18284.0,2042.25
00:00:10.797,2188.0,-412.0,-18236.0,1987.41
00:00:10.830,2332.0,-344.0,-18340.0,2106.87
00:00:10.862,2344.0,-356.0,-18376.0,2144.31
00:00:10.894,2172.0,-324.0,-18340.0,2087.01
00:00:10.927,2244.0,-420.0,-18328.0,2085.64
00:00:10.959,2248.0,-304.0,-18376.0,2131.49
00:00:10.991,2196.0,-352.0,-18456.0,2205.52
00:00:11.023,2248.0,-472.0,-18236.0,1996.10
00:00:11.056,2240.0,-424.0,-18160.0,1918.54
00:00:11.088,2236.0,-392.0,-18444.0,2199.18
00:00:11.119,2332.0,-376.0,-18296.0,2063.85
00:00:11.152,2208.0,-296.0,-18276.0,2027.28
00:00:11.184,2200.0,-356.0,-18276.0,2027.38
00:00:11.216,2376.0,-404.0,-18456.0,2228.70
00:00:11.247,2308.0,-468.0,-18308.0,2074.84
00:00:11.280,2244.0,-356.0,-18276.0,2032.69
00:00:11.312,2180.0,-404.0,-18256.0,2006.14
00:00:11.343,2292.0,-388.0,-18440.0,2201.95
00:00:11.376,2252.0,-416.0,-18448.0,2205.60
00:00:11.407,2236.0,-352.0,-18372.0,2126.92
00:00:11.439,2280.0,-420.0,-18268.0,2030.52
00:00:11.471,2200.0,-372.0,-18352.0,2103.14
00:00:11.504,2260.0,-368.0,-18364.0,2122.20
00:00:11.536,2284.0,-396.0,-18200.0,1963.03
00:00:11.568,2244.0,-420.0,-18364.0,2121.36
00:00:11.600,2324.0,-384.0,-18268.0,2035.24
00:00:11.633,2284.0,-296.0,-18276.0,2036.54
00:00:11.665,2244.0,-384.0,-18392.0,2148.37
00:00:11.698,2424.0,-416.0,-18252.0,2032.96
00:00:11.729,2216.0,-516.0,-18192.0,1949.73
00:00:11.761,2216.0,-380.0,-18296.0,2049.63
00:00:11.793,2172.0,-328.0,-18332.0,2079.14
00:00:11.826,2172.0,-368.0,-18344.0,2091.80
00:00:11.858,2260.0,-476.0,-18356.0,2116.73
00:00:11.890,2296.0,-364.0,-18428.0,2190.05
00:00:11.921,2256.0,-456.0,-18400.0,2159.39
00:00:11.953,2196.0,-372.0,-18368.0,2118.55
00:00:11.986,2152.0,-404.0,-18400.0,2145.82
00:00:12.018,2252.0,-488.0,-18284.0,2044.63
00:00:12.050,2296.0,-460.0,-18404.0,2168.37
00:00:12.083,2236.0,-344.0,-18292.0,2047.37
00:00:12.114,2252.0,-316.0,-18380.0,2136.14
00:00:12.145,2280.0,-404.0,-18380.0,2141.28
00:00:12.177,2272.0,-364.0,-18204.0,1964.84
00:00:12.210,2204.0,-488.0,-18352.0,2106.31
00:00:12.242,2320.0,-384.0,-18324.0,2090.27
00:00:12.274,2260.0,-464.0,-18360.0,2120.39
00:00:12.305,2312.0,-508.0,-18332.0,2100.20
00:00:12.338,2268.0,-396.0,-18408.0,2167.42
00:00:12.369,2248.0,-496.0,-18248.0,2008.64
00:00:12.401,2256.0,-388.0,-18440.0,2197.54
00:00:12.433,2316.0,-396.0,-18328.0,2093.99
00:00:12.465,2264.0,-364.0,-18300.0,2059.11
00:00:12.497,2244.0,-384.0,-18424.0,2180.13
00:00:12.528,2252.0,-500.0,-18164.0,1925.90
00:00:12.561,2316.0,-368.0,-18464.0,2228.32
00:00:12.593,2308.0,-312.0,-18252.0,2015.99
00:00:12.625,2396.0,-332.0,-18388.0,2162.42
00:00:12.657,2172.0,-480.0,-18396.0,2146.00
00:00:12.690,2196.0,-444.0,-18376.0,2128.08
00:00:12.722,2344.0,-360.0,-18256.0,2025.39
00:00:12.754,2216.0,-360.0,-18316.0,2069.08
00:00:12.786,2252.0,-340.0,-18452.0,2208.03
00:00:12.817,2252.0,-324.0,-18356.0,2112.46
00:00:12.849,2280.0,-436.0,-18356.0,2118.20
00:00:12.880,2220.0,-368.0,-18272.0,2026.05
00:00:12.913,2244.0,-336.0,-18316.0,2072.01
00:00:12.945,2328.0,-432.0,-18188.0,1957.47
00:00:12.977,2108.0,-412.0,-18340.0,2081.35
00:00:13.010,2228.0,-368.0,-18296.0,2050.83
00:00:13.042,2332.0,-312.0,-18352.0,2118.20
00:00:13.075,2380.0,-320.0,-18352.0,2124.45
00:00:13.108,2244.0,-308.0,-18316.0,2071.52
00:00:13.140,2252.0,-428.0,-18336.0,2094.73
00:00:13.172,2324.0,-300.0,-18408.0,2172.55
00:00:13.204,2236.0,-384.0,-18364.0,2119.61
00:00:13.237,2268.0,-340.0,-18392.0,2150.43
00:00:13.269,2408.0,-340.0,-18404.0,2179.98
00:00:13.301,2368.0,-372.0,-18432.0,2203.21
00:00:13.334,2188.0,-420.0,-18372.0,2122.60
00:00:13.366,2136.0,-392.0,-18400.0,2143.71
00:00:13.398,2232.0,-396.0,-18280.0,2036.02
00:00:13.430,2256.0,-368.0,-18436.0,2193.16
00:00:13.463,2204.0,-320.0,-18332.0,2082.79
00:00:13.495,2292.0,-408.0,-18436.0,2198.41
00:00:13.526,2180.0,-484.0,-18396.0,2147.04
00:00:13.559,2168.0,-404.0,-18388.0,2135.77
00:00:13.591,2184.0,-392.0,-18392.0,2141.37
00:00:13.623,2260.0,-364.0,-18244.0,2003.05
00:00:13.654,2288.0,-436.0,-18320.0,2083.47
00:00:13.686,2196.0,-320.0,-18292.0,2042.12
00:00:13.718,2260.0,-384.0,-18416.0,2174.13
00:00:13.750,2296.0,-440.0,-18228.0,1993.30
00:00:13.781,2356.0,-328.0,-18296.0,2065.98
00:00:13.814,2268.0,-424.0,-18324.0,2084.69
00:00:13.846,2180.0,-284.0,-18408.0,2154.81
00:00:13.878,2304.0,-360.0,-18332.0,2095.73
00:00:13.911,2284.0,-408.0,-18236.0,1999.00
00:00:13.943,2296.0,-488.0,-18352.0,2117.50
00:00:13.975,2212.0,-364.0,-18316.0,2068.68
00:00:14.007,2276.0,-376.0,-18344.0,2104.48
00:00:14.040,2316.0,-436.0,-18520.0,2285.34
00:00:14.071,2280.0,-420.0,-18388.0,2149.57
00:00:14.104,2244.0,-468.0,-18348.0,2106.64
00:00:14.136,2164.0,-568.0,-18296.0,2048.29
00:00:14.168,2296.0,-400.0,-18404.0,2166.98
00:00:14.200,2208.0,-392.0,-18308.0,2060.83
00:00:14.232,2316.0,-388.0,-18412.0,2177.15
00:00:14.265,2156.0,-292.0,-18404.0,2148.16
00:00:14.296,2228.0,-336.0,-18404.0,2157.42
00:00:14.328,2388.0,-472.0,-18264.0,2041.50
00:00:14.361,2176.0,-416.0,-18200.0,1950.34
00:00:14.393,2256.0,-340.0,-18296.0,2053.70
00:00:14.425,2268.0,-352.0,-18204.0,1964.12
00:00:14.457,2280.0,-352.0,-18324.0,2084.66
00:00:14.490,2244.0,-456.0,-18344.0,2102.37
00:00:14.522,2256.0,-376.0,-18296.0,2054.40
00:00:14.554,2348.0,-424.0,-18316.0,2086.75
00:00:14.586,2252.0,-416.0,-18396.0,2154.00
00:00:14.618,2224.0,-388.0,-18344.0,2098.40
00:00:14.650,2192.0,-340.0,-18456.0,2204.82
00:00:14.682,2240.0,-368.0,-18300.0,2056.26
00:00:14.714,2288.0,-400.0,-18328.0,2090.59
00:00:14.746,2332.0,-352.0,-18392.0,2158.59
00:00:14.778,2280.0,-328.0,-18328.0,2088.18
00:00:14.809,2216.0,-336.0,-18424.0,2175.83
00:00:14.842,2296.0,-316.0,-18312.0,2074.08
00:00:14.874,2256.0,-376.0,-18304.0,2062.34
00:00:14.906,2308.0,-464.0,-18216.0,1983.49
00:00:14.938,2344.0,-352.0,-18360.0,2128.37
00:00:14.970,2272.0,-396.0,-18368.0,2128.22
00:00:15.002,2280.0,-420.0,-18324.0,2086.08
00:00:15.035,2288.0,-380.0,-18308.0,2070.33
00:00:15.067,2316.0,-412.0,-18432.0,2197.50
00:00:15.098,2276.0,-540.0,-18324.0,2088.70
00:00:15.129,2296.0,-428.0,-18128.0,1893.83
00:00:15.162,2308.0,-404.0,-18492.0,2255.85
00:00:15.194,2308.0,-456.0,-18308.0,2074.54
00:00:15.226,2296.0,-388.0,-18500.0,2261.97
00:00:15.257,2196.0,-340.0,-18360.0,2109.99
00:00:15.290,2356.0,-452.0,-18280.0,2052.74
00:00:15.321,2284.0,-408.0,-18440.0,2201.39
00:00:15.353,2340.0,-360.0,-18288.0,2056.61
00:00:15.385,2176.0,-488.0,-18284.0,2035.49
00:00:15.417,2272.0,-464.0,-18236.0,1998.84
00:00:15.449,2232.0,-332.0,-18228.0,1983.15
00:00:15.481,2340.0,-500.0,-18428.0,2198.70
00:00:15.514,2256.0,-440.0,-18328.0,2087.57
00:00:15.547,2220.0,-292.0,-18376.0,2127.92
00:00:15.579,2252.0,-328.0,-18284.0,2041.08
00:00:15.611,2248.0,-412.0,-18416.0,2173.27
00:00:15.644,2264.0,-372.0,-18268.0,2027.52
00:00:15.676,2256.0,-420.0,-18300.0,2059.32
00:00:15.707,2200.0,-412.0,-18296.0,2048.40
00:00:15.740,2300.0,-396.0,-18404.0,2167.39
00:00:15.771,2332.0,-460.0,-18380.0,2149.06
00:00:15.803,2268.0,-404.0,-18440.0,2199.34
00:00:15.836,2264.0,-400.0,-18492.0,2250.37
00:00:15.868,2196.0,-364.0,-18432.0,2181.92
00:00:15.900,2184.0,-416.0,-18240.0,1991.00
00:00:15.932,2236.0,-576.0,-18408.0,2168.25
00:00:15.965,2308.0,-436.0,-18388.0,2153.41
00:00:15.996,2136.0,-344.0,-18312.0,2055.36
00:00:16.028,2196.0,-388.0,-18500.0,2249.92
00:00:16.060,2224.0,-472.0,-18200.0,1957.45
00:00:16.093,2300.0,-360.0,-18252.0,2015.87
00:00:16.125,2260.0,-396.0,-18368.0,2126.75
00:00:16.157,2308.0,-404.0,-18328.0,2093.17
00:00:16.190,2312.0,-424.0,-18268.0,2034.60
00:00:16.221,2296.0,-396.0,-18348.0,2111.34
00:00:16.253,2264.0,-404.0,-18352.0,2111.54
00:00:16.285,2292.0,-404.0,-18300.0,2063.40
00:00:16.318,2288.0,-440.0,-18148.0,1912.95
00:00:16.350,2300.0,-428.0,-18296.0,2060.97
00:00:16.382,2292.0,-420.0,-18240.0,2004.24
00:00:16.414,2272.0,-464.0,-18372.0,2133.77
00:00:16.446,2152.0,-436.0,-18316.0,2063.14
00:00:16.478,2184.0,-396.0,-18372.0,2121.60
00:00:16.510,2344.0,-336.0,-18424.0,2191.55
00:00:16.542,2260.0,-420.0,-18364.0,2123.31
00:00:16.574,2324.0,-392.0,-18308.0,2075.08
00:00:16.606,2220.0,-320.0,-18436.0,2187.94
00:00:16.638,2360.0,-368.0,-18304.0,2075.18
00:00:16.671,2212.0,-436.0,-18352.0,2105.97
00:00:16.703,2288.0,-340.0,-18336.0,2097.33
00:00:16.736,2228.0,-344.0,-18244.0,1998.76
00:00:16.768,2304.0,-332.0,-18292.0,2055.52
00:00:16.800,2272.0,-400.0,-18360.0,2120.37
00:00:16.831,2268.0,-404.0,-18372.0,2131.87
00:00:16.863,2220.0,-320.0,-18324.0,2076.76
00:00:16.895,2252.0,-324.0,-18328.0,2084.68
00:00:16.927,2220.0,-392.0,-18488.0,2240.94
00:00:16.960,2264.0,-380.0,-18192.0,1952.27
00:00:16.992,2352.0,-492.0,-18284.0,2057.22
00:00:17.023,2272.0,-360.0,-18416.0,2175.11
00:00:17.055,2296.0,-412.0,-18236.0,2000.59
00:00:17.087,2220.0,-392.0,-18324.0,2078.15
00:00:17.120,2180.0,-344.0,-18344.0,2092.28
00:00:17.152,2188.0,-332.0,-18400.0,2148.61
00:00:17.184,2216.0,-444.0,-18308.0,2062.97
00:00:17.217,2280.0,-400.0,-18216.0,1978.49
00:00:17.249,2244.0,-412.0,-18280.0,2037.83
00:00:17.280,2264.0,-496.0,-18440.0,2201.08
00:00:17.312,2240.0,-396.0,-18300.0,2056.84
00:00:17.345,2292.0,-308.0,-18320.0,2081.39
00:00:17.377,2240.0,-384.0,-18452.0,2207.43
00:00:17.409,2208.0,-404.0,-18332.0,2084.91
00:00:17.442,2300.0,-364.0,-18420.0,2182.61
00:00:17.474,2260.0,-420.0,-18292.0,2051.87
00:00:17.506,2200.0,-412.0,-18212.0,1965.02
00:00:17.539,2224.0,-372.0,-18368.0,2121.89
00:00:17.571,2312.0,-444.0,-18368.0,2134.26
00:00:17.603,2280.0,-440.0,-18304.0,2066.70
00:00:17.635,2208.0,-432.0,-18200.0,1954.54
00:00:17.668,2276.0,-480.0,-18288.0,2051.33
00:00:17.701,2208.0,-376.0,-18276.0,2028.74
00:00:17.733,2224.0,-380.0,-18332.0,2086.32
00:00:17.765,2232.0,-404.0,-18268.0,2024.28
00:00:17.798,2212.0,-304.0,-18448.0,2198.63
00:00:17.830,2232.0,-400.0,-18372.0,2127.41
00:00:17.863,2356.0,-340.0,-18296.0,2066.20
00:00:17.895,2284.0,-404.0,-18564.0,2324.34
00:00:17.926,2264.0,-280.0,-18348.0,2105.27
00:00:17.957,2376.0,-420.0,-18252.0,2026.79
00:00:17.988,2300.0,-352.0,-18380.0,2142.69
00:00:18.021,2324.0,-384.0,-18272.0,2039.20
00:00:18.052,2220.0,-340.0,-18220.0,1973.90
00:00:18.084,2308.0,-408.0,-18332.0,2097.22
00:00:18.117,2204.0,-420.0,-18296.0,2049.06
00:00:18.149,2308.0,-404.0,-18288.0,2053.49
00:00:18.181,2236.0,-428.0,-18312.0,2068.97
00:00:18.213,2264.0,-328.0,-18496.0,2252.93
00:00:18.246,2292.0,-368.0,-18388.0,2149.95
00:00:18.278,2244.0,-340.0,-18352.0,2107.81
00:00:18.309,2244.0,-384.0,-18216.0,1973.71
00:00:18.340,2284.0,-372.0,-18256.0,2018.08
00:00:18.373,2308.0,-404.0,-18252.0,2017.78
00:00:18.405,2360.0,-424.0,-18296.0,2068.45
00:00:18.436,2360.0,-392.0,-18260.0,2032.05
00:00:18.469,2284.0,-428.0,-18416.0,2178.03
00:00:18.501,2236.0,-432.0,-18332.0,2088.91
00:00:18.532,2296.0,-420.0,-18292.0,2056.32
00:00:18.564,2204.0,-432.0,-18424.0,2176.39
00:00:18.597,2200.0,-388.0,-18376.0,2127.29
00:00:18.629,2268.0,-420.0,-18328.0,2088.57
00:00:18.661,2224.0,-296.0,-18300.0,2053.02
00:00:18.694,2228.0,-380.0,-18328.0,2082.83
00:00:18.726,2284.0,-296.0,-18484.0,2242.93
00:00:18.758,2128.0,-384.0,-18320.0,2063.17
00:00:18.789,2280.0,-352.0,-18376.0,2136.25
00:00:18.821,2324.0,-472.0,-18348.0,2116.62
00:00:18.853,2324.0,-368.0,-18360.0,2126.16
00:00:18.884,2164.0,-352.0,-18448.0,2193.82
00:00:18.916,2256.0,-524.0,-18404.0,2165.16
00:00:18.949,2260.0,-416.0,-18420.0,2178.79
00:00:18.981,2168.0,-424.0,-18284.0,2032.97
00:00:19.013,2396.0,-400.0,-18332.0,2108.24
00:00:19.046,2288.0,-296.0,-18296.0,2056.88
00:00:19.078,2396.0,-452.0,-18192.0,1970.67
00:00:19.110,2280.0,-424.0,-18416.0,2177.44
00:00:19.142,2280.0,-356.0,-18368.0,2128.39
00:00:19.175,2228.0,-384.0,-18364.0,2118.65
00:00:19.206,2340.0,-324.0,-18452.0,2218.60
00:00:19.238,2240.0,-376.0,-18356.0,2111.99
00:00:19.271,2268.0,-464.0,-18308.0,2069.78
00:00:19.303,2248.0,-392.0,-18296.0,2053.75
00:00:19.334,2164.0,-368.0,-18280.0,2027.32
00:00:19.366,2152.0,-344.0,-18424.0,2168.45
00:00:19.399,2332.0,-436.0,-18252.0,2021.54
00:00:19.431,2268.0,-356.0,-18352.0,2111.04
00:00:19.463,2304.0,-376.0,-18496.0,2258.74
00:00:19.495,2392.0,-444.0,-18308.0,2084.94
00:00:19.526,2284.0,-456.0,-18260.0,2023.94
00:00:19.558,2244.0,-408.0,-18296.0,2053.61
00:00:19.590,2268.0,-408.0,-18340.0,2100.21
00:00:19.623,2152.0,-420.0,-18412.0,2158.09
00:00:19.655,2240.0,-484.0,-18316.0,2074.81
00:00:19.687,2228.0,-444.0,-18364.0,2119.99
00:00:19.720,2320.0,-372.0,-18244.0,2010.68
00:00:19.752,2344.0,-440.0,-18420.0,2189.75
00:00:19.783,2320.0,-360.0,-18396.0,2161.21
00:00:19.815,2332.0,-336.0,-18328.0,2094.82
00:00:19.848,2208.0,-384.0,-18336.0,2088.46
00:00:19.880,2244.0,-392.0,-18188.0,1946.10
00:00:19.912,2284.0,-344.0,-18352.0,2112.78
00:00:19.945,2344.0,-460.0,-18344.0,2114.87
00:00:19.977,2232.0,-392.0,-18332.0,2087.54
00:00:20.009,2268.0,-392.0,-18288.0,2048.27
00:00:20.042,2236.0,-388.0,-18408.0,2163.36
00:00:20.074,2208.0,-388.0,-18396.0,2148.10
00:00:20.106,2236.0,-400.0,-18384.0,2139.80
00:00:20.138,2368.0,-436.0,-18252.0,2026.13
00:00:20.171,2248.0,-376.0,-18376.0,2132.81
00:00:20.203,2288.0,-392.0,-18376.0,2138.04
00:00:20.235,2228.0,-360.0,-18308.0,2062.58
00:00:20.268,2260.0,-304.0,-18452.0,2208.37
00:00:20.300,2304.0,-480.0,-18408.0,2173.84
00:00:20.332,2252.0,-368.0,-18304.0,2061.69
00:00:20.364,2300.0,-332.0,-18344.0,2106.61
00:00:20.397,2216.0,-464.0,-18248.0,2003.92
00:00:20.429,2248.0,-404.0,-18320.0,2077.83
00:00:20.461,2236.0,-340.0,-18276.0,2031.41
00:00:20.492,2316.0,-384.0,-18312.0,2077.87
00:00:20.525,2144.0,-404.0,-18436.0,2180.65
00:00:20.557,2256.0,-420.0,-18384.0,2142.67
00:00:20.589,2288.0,-444.0,-18480.0,2242.39
00:00:20.622,2264.0,-436.0,-18364.0,2124.17
00:00:20.654,2256.0,-464.0,-18448.0,2207.22
00:00:20.686,2292.0,-440.0,-18396.0,2159.45
00:00:20.719,2268.0,-372.0,-18288.0,2047.85
00:00:20.751,2276.0,-256.0,-18300.0,2058.77
00:00:20.783,2304.0,-392.0,-18400.0,2163.83
00:00:20.815,2200.0,-292.0,-18408.0,2157.30
00:00:20.848,2276.0,-400.0,-18224.0,1985.93
00:00:20.880,2320.0,-356.0,-18440.0,2204.78
00:00:20.911,2184.0,-376.0,-18312.0,2061.61
00:00:20.943,2224.0,-404.0,-18348.0,2102.71
00:00:20.975,2312.0,-408.0,-18300.0,2065.98
00:00:21.007,2220.0,-416.0,-18280.0,2035.01
00:00:21.039,2252.0,-308.0,-18360.0,2116.16
00:00:21.072,2152.0,-480.0,-18364.0,2111.89
00:00:21.104,2328.0,-404.0,-18280.0,2048.07
00:00:21.136,2296.0,-352.0,-18376.0,2138.23
00:00:21.169,2188.0,-412.0,-18308.0,2058.88
00:00:21.201,2324.0,-420.0,-18256.0,2024.12
00:00:21.233,2096.0,-404.0,-18396.0,2135.43
00:00:21.266,2216.0,-492.0,-18368.0,2123.73
00:00:21.297,2260.0,-376.0,-18280.0,2039.01
00:00:21.328,2208.0,-324.0,-18416.0,2166.72
00:00:21.360,2268.0,-308.0,-18332.0,2090.33
00:00:21.391,2324.0,-388.0,-18264.0,2031.35
00:00:21.424,2296.0,-436.0,-18232.0,1997.17
00:00:21.456,2292.0,-420.0,-18304.0,2067.72
00:00:21.488,2208.0,-440.0,-18332.0,2085.73
00:00:21.520,2344.0,-420.0,-18352.0,2121.85
00:00:21.551,2200.0,-292.0,-18460.0,2208.93
00:00:21.583,2252.0,-488.0,-18276.0,2036.69
00:00:21.615,2336.0,-416.0,-18368.0,2136.62
00:00:21.648,2296.0,-396.0,-18308.0,2071.66
00:00:21.680,2188.0,-444.0,-18216.0,1968.31
00:00:21.712,2316.0,-320.0,-18244.0,2009.20
00:00:21.744,2352.0,-348.0,-18252.0,2022.21
00:00:21.777,2248.0,-420.0,-18228.0,1986.90
00:00:21.809,2296.0,-340.0,-18440.0,2201.50
00:00:21.841,2312.0,-308.0,-18240.0,2004.52
00:00:21.874,2324.0,-432.0,-18272.0,2040.27
00:00:21.906,2272.0,-372.0,-18260.0,2020.56
00:00:21.938,2324.0,-300.0,-18292.0,2057.48
00:00:21.971,2288.0,-440.0,-18296.0,2059.76
00:00:22.003,2200.0,-352.0,-18220.0,1971.72
00:00:22.035,2264.0,-416.0,-18284.0,2044.33
00:00:22.066,2312.0,-456.0,-18364.0,2130.58
00:00:22.099,2236.0,-412.0,-18388.0,2144.03
00:00:22.131,2208.0,-404.0,-18416.0,2168.29
00:00:22.162,2380.0,-424.0,-18440.0,2213.79
00:00:22.193,2432.0,-340.0,-18460.0,2238.62
00:00:22.225,2256.0,-428.0,-18320.0,2079.35
00:00:22.257,2244.0,-348.0,-18356.0,2111.93
00:00:22.289,2324.0,-396.0,-18344.0,2110.87
00:00:22.320,2180.0,-364.0,-18224.0,1973.53
00:00:22.353,2328.0,-340.0,-18288.0,2054.71
00:00:22.385,2352.0,-272.0,-18264.0,2032.83
00:00:22.417,2220.0,-332.0,-18268.0,2021.39
00:00:22.450,2216.0,-436.0,-18276.0,2031.02
00:00:22.482,2248.0,-404.0,-18364.0,2121.49
00:00:22.514,2344.0,-328.0,-18372.0,2139.83
00:00:22.547,2304.0,-436.0,-18272.0,2037.85
00:00:22.578,2228.0,-348.0,-18220.0,1975.02
00:00:22.610,2224.0,-436.0,-18304.0,2059.77
00:00:22.642,2320.0,-344.0,-18328.0,2093.45
00:00:22.675,2280.0,-340.0,-18364.0,2124.12
00:00:22.707,2256.0,-448.0,-18432.0,2190.95
00:00:22.739,2288.0,-336.0,-18352.0,2113.13
00:00:22.772,2256.0,-440.0,-18340.0,2099.47
00:00:22.804,2304.0,-324.0,-18420.0,2182.36
00:00:22.836,2320.0,-328.0,-18284.0,2049.52
00:00:22.868,2204.0,-344.0,-18372.0,2122.93
00:00:22.901,2160.0,-436.0,-18384.0,2131.59
00:00:22.933,2268.0,-440.0,-18396.0,2156.50
00:00:22.965,2348.0,-384.0,-18328.0,2097.78
00:00:22.998,2268.0,-352.0,-18316.0,2075.24
00:00:23.030,2248.0,-340.0,-18220.0,1977.30
00:00:23.061,2308.0,-408.0,-18268.0,2033.74
00:00:23.093,2240.0,-376.0,-18332.0,2088.17
00:00:23.126,2288.0,-340.0,-18468.0,2228.30
00:00:23.158,2280.0,-316.0,-18340.0,2099.88
00:00:23.190,2292.0,-428.0,-18244.0,2008.39
00:00:23.223,2280.0,-396.0,-18452.0,2212.55
00:00:23.255,2260.0,-416.0,-18388.0,2147.03
00:00:23.287,2212.0,-436.0,-18312.0,2066.27
00:00:23.319,2208.0,-344.0,-18356.0,2107.52
00:00:23.352,2224.0,-388.0,-18284.0,2038.85
00:00:23.383,2112.0,-396.0,-18288.0,2029.81
00:00:23.415,2136.0,-388.0,-18364.0,2107.88
00:00:23.448,2244.0,-452.0,-18256.0,2014.95
00:00:23.480,2276.0,-436.0,-18324.0,2085.96
00:00:23.512,2332.0,-368.0,-18284.0,2051.79
00:00:23.545,2252.0,-352.0,-18376.0,2132.82
00:00:23.577,2236.0,-416.0,-18356.0,2112.36
00:00:23.609,2132.0,-292.0,-18256.0,1998.39
00:00:23.641,2272.0,-376.0,-18356.0,2115.89
00:00:23.674,2280.0,-376.0,-18368.0,2128.78
00:00:23.706,2324.0,-472.0,-18204.0,1973.82
00:00:23.738,2316.0,-404.0,-18384.0,2149.71
00:00:23.770,2304.0,-416.0,-18380.0,2144.52
00:00:23.802,2268.0,-464.0,-18276.0,2038.03
00:00:23.834,2300.0,-408.0,-18352.0,2116.06
00:00:23.866,2196.0,-252.0,-18264.0,2013.27
00:00:23.898,2184.0,-412.0,-18340.0,2090.18
00:00:23.930,2264.0,-452.0,-18208.0,1969.78
00:00:23.962,2272.0,-396.0,-18480.0,2239.35
00:00:23.994,2212.0,-332.0,-18308.0,2060.13
00:00:24.027,2196.0,-456.0,-18304.0,2056.90
00:00:24.059,2276.0,-412.0,-18228.0,1990.16
00:00:24.091,2192.0,-344.0,-18156.0,1907.08
00:00:24.123,2172.0,-368.0,-18396.0,2143.43
00:00:24.156,2336.0,-412.0,-18300.0,2069.09
00:00:24.188,2208.0,-380.0,-18340.0,2092.34
00:00:24.219,2148.0,-376.0,-18380.0,2124.91
00:00:24.252,2236.0,-428.0,-18300.0,2057.07
00:00:24.283,2208.0,-444.0,-18196.0,1950.85
00:00:24.314,2280.0,-368.0,-18104.0,1866.72
00:00:24.346,2260.0,-380.0,-18376.0,2134.35
00:00:24.378,2284.0,-436.0,-18392.0,2154.40
00:00:24.410,2244.0,-288.0,-18276.0,2031.50
00:00:24.441,2248.0,-360.0,-18200.0,1957.84
00:00:24.473,2268.0,-412.0,-18292.0,2052.67
00:00:24.506,2152.0,-332.0,-18328.0,2072.89
00:00:24.538,2240.0,-372.0,-18288.0,2044.43
00:00:24.570,2264.0,-384.0,-18316.0,2075.39
00:00:24.603,2216.0,-464.0,-18264.0,2019.79
00:00:24.635,2336.0,-424.0,-18456.0,2224.08
00:00:24.667,2272.0,-448.0,-18324.0,2085.75
00:00:24.699,2192.0,-404.0,-18420.0,2170.37
00:00:24.732,2296.0,-356.0,-18264.0,2027.19
00:00:24.763,2208.0,-360.0,-18356.0,2107.83
00:00:24.795,2268.0,-452.0,-18304.0,2065.51
00:00:24.828,2300.0,-444.0,-18252.0,2017.70
00:00:24.860,2312.0,-324.0,-18316.0,2080.19
00:00:24.892,2264.0,-360.0,-18192.0,1951.87
00:00:24.923,2172.0,-412.0,-18300.0,2049.05
00:00:24.956,2300.0,-268.0,-18436.0,2196.85
00:00:24.988,2240.0,-400.0,-18380.0,2136.31
00:00:25.020,2324.0,-404.0,-18280.0,2047.57
00:00:25.052,2296.0,-376.0,-18432.0,2194.26
00:00:25.085,2180.0,-384.0,-18260.0,2009.68
00:00:25.117,2156.0,-396.0,-18352.0,2098.45
00:00:25.149,2268.0,-280.0,-18264.0,2022.41
00:00:25.181,2244.0,-352.0,-18384.0,2139.79
00:00:25.213,2316.0,-316.0,-18332.0,2096.42
00:00:25.245,2208.0,-416.0,-18380.0,2132.82
00:00:25.278,2268.0,-392.0,-18388.0,2147.49
00:00:25.310,2228.0,-280.0,-18404.0,2156.49
00:00:25.342,2260.0,-344.0,-18288.0,2046.33
00:00:25.374,2228.0,-420.0,-18404.0,2159.13
00:00:25.407,2324.0,-332.0,-18380.0,2145.32
00:00:25.438,2216.0,-372.0,-18412.0,2164.61
00:00:25.469,2280.0,-428.0,-18284.0,2046.58
00:00:25.501,2340.0,-252.0,-18164.0,1931.84
00:00:25.534,2300.0,-396.0,-18232.0,1996.77
00:00:25.566,2172.0,-344.0,-18348.0,2095.31
00:00:25.598,2196.0,-396.0,-18396.0,2146.84
00:00:25.631,2244.0,-384.0,-18240.0,1997.53
00:00:25.663,2316.0,-452.0,-18272.0,2039.74
00:00:25.695,2332.0,-412.0,-18280.0,2048.75
00:00:25.726,2292.0,-320.0,-18244.0,2006.19
00:00:25.759,2236.0,-412.0,-18316.0,2072.58
00:00:25.790,2304.0,-428.0,-18460.0,2224.15
00:00:25.822,2280.0,-348.0,-18484.0,2243.34
00:00:25.853,2292.0,-396.0,-18412.0,2174.34
00:00:25.886,2260.0,-360.0,-18272.0,2030.75
00:00:25.918,2288.0,-356.0,-18444.0,2204.78
00:00:25.950,2332.0,-424.0,-18300.0,2068.86
00:00:25.983,2232.0,-412.0,-18276.0,2032.40
00:00:26.015,2280.0,-332.0,-18352.0,2112.07
00:00:26.047,2280.0,-336.0,-18332.0,2092.30
00:00:26.079,2284.0,-424.0,-18372.0,2134.28
00:00:26.111,2216.0,-384.0,-18444.0,2196.61
00:00:26.143,2288.0,-404.0,-18248.0,2011.32
00:00:26.175,2352.0,-392.0,-18464.0,2233.33
00:00:26.208,2200.0,-348.0,-18268.0,2019.29
00:00:26.240,2248.0,-348.0,-18272.0,2029.05
00:00:26.272,2308.0,-420.0,-18392.0,2157.01
00:00:26.305,2348.0,-340.0,-18308.0,2077.08
00:00:26.337,2232.0,-312.0,-18260.0,2014.55
00:00:26.369,2296.0,-276.0,-18380.0,2140.91
00:00:26.401,2284.0,-352.0,-18284.0,2045.47
00:00:26.434,2312.0,-356.0,-18196.0,1961.75
00:00:26.466,2340.0,-388.0,-18300.0,2069.08
00:00:26.498,2252.0,-332.0,-18328.0,2084.82
00:00:26.531,2348.0,-360.0,-18384.0,2152.83
00:00:26.563,2320.0,-360.0,-18264.0,2030.28
00:00:26.594,2312.0,-288.0,-18336.0,2099.43
00:00:26.626,2304.0,-396.0,-18352.0,2116.30
00:00:26.659,2304.0,-296.0,-18340.0,2102.53
00:00:26.691,2340.0,-360.0,-18292.0,2060.58
00:00:26.723,2272.0,-312.0,-18368.0,2126.61
00:00:26.755,2308.0,-428.0,-18280.0,2046.10
00:00:26.788,2272.0,-272.0,-18464.0,2221.25
00:00:26.820,2252.0,-324.0,-18404.0,2160.10
00:00:26.853,2296.0,-364.0,-18312.0,2074.97
00:00:26.885,2244.0,-420.0,-18212.0,1970.53
00:00:26.916,2164.0,-364.0,-18320.0,2066.96
00:00:26.949,2248.0,-332.0,-18248.0,2004.94
00:00:26.981,2304.0,-384.0,-18408.0,2171.60
00:00:27.013,2312.0,-428.0,-18400.0,2165.62
00:00:27.044,2260.0,-432.0,-18268.0,2028.33
00:00:27.076,2204.0,-388.0,-18352.0,2103.94
00:00:27.109,2268.0,-244.0,-18380.0,2137.01
00:00:27.141,2252.0,-340.0,-18396.0,2152.45
00:00:27.173,2268.0,-392.0,-18400.0,2159.39
00:00:27.204,2324.0,-376.0,-18256.0,2023.17
00:00:27.237,2316.0,-384.0,-18432.0,2196.90
00:00:27.269,2264.0,-528.0,-18312.0,2074.98
00:00:27.301,2292.0,-320.0,-18616.0,2375.29
00:00:27.334,2240.0,-412.0,-18252.0,2009.55
00:00:27.366,2248.0,-372.0,-18236.0,1993.80
00:00:27.398,2264.0,-352.0,-18404.0,2162.07
00:00:27.431,2156.0,-368.0,-18308.0,2054.18
00:00:27.463,2172.0,-392.0,-18300.0,2048.61
00:00:27.495,2192.0,-480.0,-18364.0,2116.59
00:00:27.527,2368.0,-428.0,-18368.0,2140.96
00:00:27.559,2260.0,-324.0,-18368.0,2125.35
00:00:27.591,2280.0,-360.0,-18192.0,1953.85
00:00:27.622,2292.0,-480.0,-18420.0,2184.25
00:00:27.655,2340.0,-388.0,-18168.0,1938.18
00:00:27.687,2328.0,-360.0,-18312.0,2078.90
00:00:27.718,2272.0,-352.0,-18452.0,2210.68
00:00:27.749,2292.0,-392.0,-18204.0,1967.91
00:00:27.782,2244.0,-356.0,-18300.0,2056.51
00:00:27.814,2156.0,-464.0,-18200.0,1949.13
00:00:27.846,2368.0,-264.0,-18300.0,2070.46
00:00:27.878,2288.0,-388.0,-18280.0,2042.72
00:00:27.911,2188.0,-316.0,-18432.0,2180.10
00:00:27.943,2332.0,-364.0,-18296.0,2063.61
00:00:27.974,2312.0,-396.0,-18412.0,2176.82
00:00:28.007,2216.0,-268.0,-18332.0,2083.40
00:00:28.039,2284.0,-412.0,-18324.0,2086.39
00:00:28.071,2260.0,-424.0,-18380.0,2139.28
00:00:28.104,2352.0,-292.0,-18372.0,2140.24
00:00:28.137,2316.0,-384.0,-18344.0,2109.61
00:00:28.169,2248.0,-396.0,-18232.0,1990.33
00:00:28.201,2272.0,-396.0,-18440.0,2199.66
00:00:28.234,2216.0,-372.0,-18384.0,2136.81
00:00:28.266,2368.0,-348.0,-18372.0,2143.25
00:00:28.298,2348.0,-376.0,-18296.0,2065.88
00:00:28.331,2240.0,-440.0,-18364.0,2121.34
00:00:28.363,2308.0,-368.0,-18220.0,1985.29
00:00:28.395,2284.0,-404.0,-18412.0,2173.52
00:00:28.427,2408.0,-352.0,-18324.0,2100.90
00:00:28.460,2188.0,-320.0,-18220.0,1969.70
00:00:28.492,2180.0,-356.0,-18308.0,2056.77
00:00:28.524,2328.0,-368.0,-18432.0,2198.08
00:00:28.557,2260.0,-376.0,-18316.0,2074.73
00:00:28.588,2300.0,-264.0,-18348.0,2109.48
00:00:28.620,2232.0,-380.0,-18340.0,2095.23
00:00:28.652,2188.0,-432.0,-18380.0,2130.81
00:00:28.685,2272.0,-464.0,-18472.0,2232.98
00:00:28.717,2212.0,-452.0,-18312.0,2066.65
00:00:28.749,2264.0,-480.0,-18328.0,2089.54
00:00:28.781,2288.0,-380.0,-18328.0,2090.17
00:00:28.814,2200.0,-460.0,-18336.0,2089.24
00:00:28.846,2352.0,-360.0,-18388.0,2157.31
00:00:28.878,2268.0,-340.0,-18380.0,2138.52
00:00:28.911,2376.0,-400.0,-18356.0,2129.46
00:00:28.943,2304.0,-316.0,-18392.0,2154.44
00:00:28.975,2268.0,-376.0,-18416.0,2174.94
00:00:29.008,2320.0,-364.0,-18372.0,2137.48
00:00:29.039,2240.0,-320.0,-18240.0,1995.82
00:00:29.071,2292.0,-436.0,-18372.0,2135.55
00:00:29.104,2224.0,-380.0,-18392.0,2145.87
00:00:29.136,2372.0,-380.0,-18280.0,2053.17
00:00:29.168,2312.0,-440.0,-18444.0,2209.55
00:00:29.200,2224.0,-404.0,-18368.0,2122.56
00:00:29.233,2288.0,-392.0,-18364.0,2126.14
00:00:29.265,2152.0,-432.0,-18404.0,2150.43
00:00:29.298,2080.0,-392.0,-18224.0,1962.50
00:00:29.330,2328.0,-388.0,-18308.0,2075.50
00:00:29.362,2340.0,-396.0,-18240.0,2009.75
00:00:29.394,2196.0,-436.0,-18300.0,2052.45
00:00:29.426,2276.0,-352.0,-18264.0,2024.63
00:00:29.458,2248.0,-404.0,-18300.0,2057.98
00:00:29.491,2320.0,-392.0,-18296.0,2062.67
00:00:29.523,2300.0,-412.0,-18296.0,2060.60
00:00:29.555,2288.0,-436.0,-18356.0,2119.18
00:00:29.588,2264.0,-356.0,-18292.0,2051.01
00:00:29.619,2284.0,-384.0,-18308.0,2069.91
00:00:29.651,2272.0,-420.0,-18476.0,2235.91
00:00:29.682,2360.0,-364.0,-18260.0,2031.47
00:00:29.715,2200.0,-296.0,-18292.0,2042.20
00:00:29.747,2232.0,-412.0,-18300.0,2056.22
00:00:29.779,2268.0,-456.0,-18284.0,2045.77
00:00:29.812,2284.0,-472.0,-18372.0,2135.44
00:00:29.844,2216.0,-488.0,-18296.0,2052.17
00:00:29.876,2220.0,-396.0,-18276.0,2030.60
00:00:29.909,2312.0,-392.0,-18288.0,2053.73
00:00:29.941,2324.0,-312.0,-18456.0,2220.36
00:00:29.973,2296.0,-360.0,-18348.0,2110.60
00:00:30.006,2300.0,-392.0,-18312.0,2076.04
00:00:30.038,2304.0,-404.0,-18520.0,2283.14
00:00:30.070,2264.0,-392.0,-18408.0,2166.84
00:00:30.102,2304.0,-352.0,-18388.0,2151.13
00:00:30.135,2312.0,-392.0,-18280.0,2045.80
00:00:30.166,2296.0,-344.0,-18316.0,2078.55
00:00:30.198,2256.0,-380.0,-18332.0,2090.20
00:00:30.230,2240.0,-424.0,-18368.0,2124.94
00:00:30.263,2300.0,-436.0,-18244.0,2009.58
00:00:30.295,2252.0,-392.0,-18268.0,2026.46
00:00:30.327,2288.0,-424.0,-18276.0,2039.54
00:00:30.360,2208.0,-332.0,-18288.0,2039.80
00:00:30.392,2380.0,-312.0,-18260.0,2033.09
00:00:30.424,2156.0,-412.0,-18416.0,2162.35
00:00:30.456,2252.0,-420.0,-18364.0,2122.33
00:00:30.489,2304.0,-416.0,-18320.0,2085.00
00:00:30.521,2240.0,-296.0,-18396.0,2150.24
00:00:30.552,2284.0,-456.0,-18256.0,2019.97
00:00:30.585,2284.0,-396.0,-18436.0,2197.16
00:00:30.617,2248.0,-384.0,-18352.0,2109.16
00:00:30.649,2276.0,-328.0,-18188.0,1948.79
00:00:30.681,2304.0,-400.0,-18372.0,2136.23
00:00:30.714,2348.0,-340.0,-18380.0,2148.49
00:00:30.746,2288.0,-340.0,-18412.0,2172.73
00:00:30.778,2236.0,-416.0,-18456.0,2211.61
00:00:30.810,2308.0,-436.0,-18332.0,2097.86
00:00:30.842,2328.0,-372.0,-18300.0,2067.23
00:00:30.874,2276.0,-320.0,-18368.0,2127.24
00:00:30.906,2340.0,-512.0,-18336.0,2107.80
00:00:30.939,2308.0,-284.0,-18340.0,2102.84
00:00:30.971,2268.0,-384.0,-18372.0,2131.44
00:00:31.002,2388.0,-336.0,-18472.0,2244.75
00:00:31.034,2316.0,-324.0,-18392.0,2156.08
00:00:31.067,2156.0,-368.0,-18340.0,2085.96
00:00:31.099,2148.0,-392.0,-18304.0,2049.77
00:00:31.131,2292.0,-456.0,-18312.0,2076.51
00:00:31.164,2236.0,-544.0,-18176.0,1937.10
00:00:31.195,2180.0,-348.0,-18224.0,1973.22
00:00:31.227,2304.0,-376.0,-18428.0,2191.28
00:00:31.259,2252.0,-368.0,-18388.0,2145.04
00:00:31.292,2328.0,-312.0,-18296.0,2062.15
00:00:31.324,2216.0,-380.0,-18320.0,2073.45
00:00:31.356,2252.0,-464.0,-18324.0,2083.70
00:00:31.389,2388.0,-348.0,-18492.0,2264.80
00:00:31.420,2240.0,-300.0,-18120.0,1876.39
00:00:31.452,2200.0,-376.0,-18200.0,1952.34
00:00:31.485,2268.0,-352.0,-18408.0,2166.53
00:00:31.517,2192.0,-368.0,-18208.0,1959.16
00:00:31.549,2264.0,-324.0,-18464.0,2221.11
00:00:31.581,2224.0,-428.0,-18200.0,1956.38
00:00:31.614,2272.0,-452.0,-18296.0,2058.07
00:00:31.645,2324.0,-332.0,-18328.0,2093.74
00:00:31.677,2236.0,-416.0,-18320.0,2076.64
00:00:31.710,2320.0,-412.0,-18344.0,2110.71
00:00:31.742,2260.0,-468.0,-18436.0,2195.90
00:00:31.773,2368.0,-376.0,-18228.0,2001.02
00:00:31.805,2200.0,-324.0,-18260.0,2010.91
00:00:31.837,2252.0,-360.0,-18432.0,2188.55
00:00:31.868,2208.0,-412.0,-18268.0,2021.57
00:00:31.900,2276.0,-448.0,-18424.0,2185.45
00:00:31.932,2244.0,-372.0,-18316.0,2072.70
00:00:31.965,2212.0,-508.0,-18364.0,2119.72
00:00:31.997,2292.0,-372.0,-18376.0,2138.12
00:00:32.030,2196.0,-388.0,-18364.0,2114.90
00:00:32.062,2220.0,-388.0,-18380.0,2133.65
00:00:32.094,2248.0,-456.0,-18304.0,2063.16
00:00:32.126,2196.0,-316.0,-18392.0,2141.33
00:00:32.159,2280.0,-448.0,-18312.0,2074.83
00:00:32.191,2288.0,-392.0,-18272.0,2034.87
00:00:32.223,2352.0,-396.0,-18368.0,2138.21
00:00:32.255,2152.0,-332.0,-18296.0,2041.12
00:00:32.288,2288.0,-380.0,-18404.0,2165.57
00:00:32.320,2212.0,-428.0,-18340.0,2093.87
00:00:32.352,2276.0,-408.0,-18328.0,2089.28
00:00:32.384,2240.0,-392.0,-18328.0,2084.54
00:00:32.417,2296.0,-424.0,-18352.0,2115.93
00:00:32.449,2148.0,-344.0,-18420.0,2164.01
00:00:32.481,2352.0,-404.0,-18236.0,2007.49
00:00:32.514,2184.0,-360.0,-18184.0,1934.22
00:00:32.546,2264.0,-412.0,-18308.0,2068.05
00:00:32.578,2216.0,-424.0,-18288.0,2042.65
00:00:32.609,2320.0,-352.0,-18404.0,2168.99
00:00:32.642,2272.0,-420.0,-18260.0,2021.60
00:00:32.674,2240.0,-408.0,-18316.0,2072.97
00:00:32.706,2264.0,-476.0,-18292.0,2053.72
00:00:32.739,2212.0,-332.0,-18412.0,2163.37
00:00:32.771,2256.0,-332.0,-18316.0,2073.40
00:00:32.803,2364.0,-368.0,-18364.0,2135.19
00:00:32.835,2232.0,-400.0,-18292.0,2048.01
00:00:32.868,2260.0,-344.0,-18244.0,2002.67
00:00:32.900,2300.0,-356.0,-18324.0,2087.21
00:00:32.932,2248.0,-348.0,-18276.0,2033.02
00:00:32.964,2336.0,-416.0,-18288.0,2057.28
00:00:32.997,2224.0,-420.0,-18440.0,2194.38
00:00:33.029,2272.0,-384.0,-18360.0,2120.03
00:00:33.061,2300.0,-364.0,-18356.0,2119.11
00:00:33.094,2328.0,-336.0,-18312.0,2078.44
00:00:33.126,2316.0,-296.0,-18460.0,2223.07
00:00:33.158,2360.0,-392.0,-18264.0,2036.02
00:00:33.190,2332.0,-388.0,-18468.0,2234.69
00:00:33.222,2240.0,-340.0,-18428.0,2182.75
00:00:33.254,2340.0,-340.0,-18416.0,2183.18
00:00:33.286,2272.0,-404.0,-18236.0,1997.43
00:00:33.319,2344.0,-192.0,-18320.0,2086.34
00:00:33.351,2340.0,-344.0,-18316.0,2084.07
00:00:33.383,2292.0,-376.0,-18432.0,2193.76
00:00:33.416,2208.0,-352.0,-18300.0,2052.08
00:00:33.448,2272.0,-292.0,-18488.0,2245.37
00:00:33.479,2216.0,-412.0,-18168.0,1923.28
00:00:33.510,2304.0,-324.0,-18428.0,2190.30
00:00:33.542,2240.0,-348.0,-18284.0,2039.99
00:00:33.574,2292.0,-384.0,-18368.0,2130.43
00:00:33.606,2324.0,-324.0,-18264.0,2030.12
00:00:33.638,2432.0,-416.0,-18276.0,2057.80
00:00:33.671,2228.0,-460.0,-18348.0,2104.50
00:00:33.703,2212.0,-280.0,-18284.0,2035.45
00:00:33.735,2300.0,-388.0,-18456.0,2218.81
00:00:33.767,2388.0,-396.0,-18244.0,2019.88
00:00:33.799,2336.0,-420.0,-18252.0,2021.67
00:00:33.831,2196.0,-268.0,-18340.0,2088.95
00:00:33.863,2280.0,-348.0,-18284.0,2044.89
00:00:33.896,2352.0,-372.0,-18416.0,2185.31
00:00:33.927,2188.0,-464.0,-18348.0,2099.82
00:00:33.959,2332.0,-312.0,-18400.0,2165.81
00:00:33.992,2196.0,-408.0,-18348.0,2099.45
00:00:34.024,2156.0,-324.0,-18324.0,2069.25
00:00:34.056,2240.0,-344.0,-18308.0,2063.73
00:00:34.089,2292.0,-412.0,-18200.0,1964.38
00:00:34.121,2288.0,-412.0,-18396.0,2158.32
00:00:34.153,2224.0,-336.0,-18396.0,2148.99
00:00:34.185,2204.0,-312.0,-18264.0,2015.15
00:00:34.217,2260.0,-396.0,-18412.0,2170.41
00:00:34.248,2304.0,-384.0,-18220.0,1985.11
00:00:34.280,2336.0,-404.0,-18252.0,2021.31
00:00:34.312,2204.0,-360.0,-18492.0,2242.36
00:00:34.345,2280.0,-360.0,-18352.0,2112.59
00:00:34.376,2192.0,-332.0,-18344.0,2093.48
00:00:34.408,2160.0,-368.0,-18388.0,2134.09
00:00:34.441,2148.0,-416.0,-18412.0,2157.54
00:00:34.473,2312.0,-368.0,-18364.0,2128.62
00:00:34.505,2312.0,-368.0,-18364.0,2128.62
00:00:34.537,2280.0,-368.0,-18288.0,2049.25
00:00:34.570,2260.0,-364.0,-18292.0,2050.68
00:00:34.602,2112.0,-404.0,-18344.0,2085.60
00:00:34.634,2340.0,-340.0,-18380.0,2147.48
00:00:34.667,2192.0,-440.0,-18428.0,2179.13
00:00:34.699,2308.0,-356.0,-18448.0,2211.22
00:00:34.731,2272.0,-512.0,-18392.0,2154.87
00:00:34.763,2260.0,-384.0,-18332.0,2090.77
00:00:34.796,2236.0,-332.0,-18320.0,2074.94
00:00:34.828,2276.0,-428.0,-18196.0,1958.79
00:00:34.859,2292.0,-448.0,-18168.0,1933.48
00:00:34.892,2232.0,-352.0,-18352.0,2106.58
00:00:34.924,2328.0,-364.0,-18244.0,2011.53
00:00:34.956,2296.0,-436.0,-18192.0,1957.50
00:00:34.988,2212.0,-456.0,-18400.0,2154.09
00:00:35.021,2268.0,-384.0,-18420.0,2179.07
00:00:35.053,2288.0,-384.0,-18456.0,2217.25
00:00:35.085,2296.0,-488.0,-18320.0,2085.76
00:00:35.117,2136.0,-532.0,-18432.0,2178.98
00:00:35.150,2236.0,-368.0,-18156.0,1912.87
00:00:35.182,2272.0,-376.0,-18340.0,2100.02
00:00:35.215,2248.0,-368.0,-18208.0,1965.94
00:00:35.247,2240.0,-316.0,-18360.0,2114.84
00:00:35.279,2360.0,-348.0,-18312.0,2082.73
00:00:35.310,2244.0,-380.0,-18156.0,1914.09
00:00:35.342,2232.0,-376.0,-18424.0,2178.52
00:00:35.374,2228.0,-464.0,-18356.0,2112.54
00:00:35.406,2300.0,-396.0,-18472.0,2234.85
00:00:35.438,2308.0,-428.0,-18408.0,2173.06
00:00:35.471,2312.0,-408.0,-18288.0,2054.08
00:00:35.503,2236.0,-436.0,-18428.0,2184.28
00:00:35.535,2240.0,-356.0,-18208.0,1964.72
00:00:35.568,2312.0,-408.0,-18376.0,2141.37
00:00:35.600,2244.0,-352.0,-18328.0,2084.22
00:00:35.631,2232.0,-424.0,-18232.0,1989.01
00:00:35.663,2336.0,-492.0,-18300.0,2071.05
00:00:35.696,2212.0,-344.0,-18384.0,2135.79
00:00:35.728,2252.0,-416.0,-18204.0,1963.48
00:00:35.760,2144.0,-452.0,-18472.0,2217.50
00:00:35.794,2320.0,-344.0,-18232.0,1998.23
00:00:35.825,2240.0,-312.0,-18208.0,1963.92
00:00:35.858,2280.0,-408.0,-18528.0,2288.22
00:00:35.890,2188.0,-428.0,-18352.0,2102.93
00:00:35.923,2100.0,-360.0,-18020.0,1761.52
00:00:35.957,2256.0,-352.0,-18580.0,2335.77
00:00:35.990,2276.0,-376.0,-18144.0,1906.06
00:00:36.024,2288.0,-368.0,-18220.0,1982.78
00:00:36.056,2256.0,-372.0,-18332.0,2090.04
00:00:36.088,2292.0,-380.0,-18380.0,2142.25
00:00:36.121,2256.0,-408.0,-18220.0,1979.67
00:00:36.153,2236.0,-348.0,-18236.0,1991.87
00:00:36.185,2308.0,-476.0,-18276.0,2043.31
00:00:36.218,2268.0,-500.0,-18284.0,2046.91
00:00:36.252,2424.0,-228.0,-19472.0,3239.62
00:00:36.283,2220.0,-392.0,-18556.0,2308.44
00:00:36.316,2272.0,-356.0,-18436.0,2194.88
00:00:36.349,2276.0,-368.0,-18256.0,2017.01
00:00:36.380,2304.0,-500.0,-18224.0,1991.87
00:00:36.412,2260.0,-232.0,-18480.0,2235.13
00:00:36.445,2224.0,-384.0,-18220.0,1975.25
00:00:36.477,2296.0,-412.0,-18520.0,2282.33
00:00:36.509,2216.0,-404.0,-18412.0,2165.28
00:00:36.542,2188.0,-400.0,-18408.0,2157.89
00:00:36.574,2368.0,-360.0,-18256.0,2028.46
00:00:36.608,2276.0,-388.0,-18836.0,2592.98
00:00:36.640,2316.0,-340.0,-18256.0,2021.46
00:00:36.673,2232.0,-352.0,-18408.0,2162.16
00:00:36.705,2308.0,-480.0,-18332.0,2098.95
00:00:36.736,2260.0,-376.0,-18332.0,2090.61
00:00:36.767,2144.0,-404.0,-18228.0,1974.10
00:00:36.800,2228.0,-348.0,-18296.0,2050.44
00:00:36.832,2308.0,-420.0,-18316.0,2081.62
00:00:36.864,2232.0,-436.0,-18212.0,1969.44
00:00:36.897,2228.0,-332.0,-18400.0,2153.37
00:00:36.929,2280.0,-448.0,-18460.0,2221.66
00:00:36.961,2320.0,-392.0,-18344.0,2110.28
00:00:36.993,2244.0,-416.0,-18260.0,2018.07
00:00:37.026,2276.0,-544.0,-18260.0,2025.34
00:00:37.057,2244.0,-408.0,-18388.0,2144.91
00:00:37.089,2172.0,-404.0,-18200.0,1949.60
00:00:37.122,2364.0,-384.0,-18396.0,2167.25
00:00:37.153,2312.0,-464.0,-18368.0,2134.75
00:00:37.185,2268.0,-428.0,-18452.0,2211.79
00:00:37.216,2268.0,-368.0,-18472.0,2230.35
00:00:37.249,2252.0,-352.0,-18332.0,2089.16
00:00:37.281,2336.0,-408.0,-18156.0,1926.21
00:00:37.312,2248.0,-312.0,-18296.0,2052.23
00:00:37.344,2356.0,-404.0,-18428.0,2198.39
00:00:37.376,2264.0,-384.0,-18372.0,2130.95
00:00:37.408,2200.0,-368.0,-18532.0,2281.76
00:00:37.440,2312.0,-368.0,-18316.0,2081.01
00:00:37.473,2236.0,-376.0,-18244.0,2000.36
00:00:37.505,2200.0,-408.0,-18316.0,2068.16
00:00:37.537,2288.0,-312.0,-18416.0,2176.21
00:00:37.570,2200.0,-424.0,-18352.0,2104.26
00:00:37.602,2256.0,-364.0,-18384.0,2141.48
00:00:37.633,2352.0,-352.0,-18228.0,1998.49
00:00:37.665,2272.0,-360.0,-18328.0,2087.79
00:00:37.698,2168.0,-400.0,-18248.0,1996.69
00:00:37.729,2300.0,-444.0,-18400.0,2164.51
00:00:37.761,2340.0,-324.0,-18388.0,2155.12
00:00:37.794,2240.0,-420.0,-18268.0,2025.61
00:00:37.826,2228.0,-440.0,-18464.0,2219.14
00:00:37.858,2128.0,-448.0,-18352.0,2096.39
00:00:37.890,2224.0,-424.0,-18368.0,2123.01
00:00:37.922,2244.0,-268.0,-18232.0,1987.53
00:00:37.954,2272.0,-408.0,-18416.0,2176.11
00:00:37.986,2276.0,-364.0,-18300.0,2060.58
00:00:38.018,2212.0,-360.0,-18368.0,2120.21
00:00:38.051,2272.0,-412.0,-18312.0,2073.01
00:00:38.083,2300.0,-328.0,-18328.0,2090.66
00:00:38.115,2264.0,-412.0,-18248.0,2008.52
00:00:38.148,2296.0,-272.0,-18348.0,2109.10
00:00:38.180,2292.0,-392.0,-18296.0,2059.17
00:00:38.212,2268.0,-352.0,-18344.0,2103.02
00:00:38.245,2288.0,-324.0,-18336.0,2097.04
00:00:38.277,2276.0,-496.0,-18232.0,1996.21
00:00:38.309,2220.0,-336.0,-18348.0,2100.87
00:00:38.341,2276.0,-324.0,-18428.0,2186.85
00:00:38.374,2180.0,-480.0,-18224.0,1976.20
00:00:38.406,2288.0,-376.0,-18376.0,2137.71
00:00:38.438,2140.0,-336.0,-18312.0,2055.68
00:00:38.471,2244.0,-404.0,-18156.0,1914.61
00:00:38.503,2304.0,-424.0,-18276.0,2041.54
00:00:38.535,2188.0,-392.0,-18324.0,2074.33
00:00:38.567,2196.0,-476.0,-18472.0,2224.16
00:00:38.600,2204.0,-404.0,-18140.0,1893.87
00:00:38.631,2288.0,-404.0,-18324.0,2086.71
00:00:38.663,2380.0,-448.0,-18408.0,2182.63
00:00:38.695,2300.0,-300.0,-18400.0,2161.62
00:00:38.728,2296.0,-332.0,-18308.0,2070.40
00:00:38.760,2272.0,-384.0,-18428.0,2187.50
00:00:38.791,2188.0,-276.0,-18340.0,2088.12
00:00:38.823,2240.0,-356.0,-18392.0,2147.32
00:00:38.856,2276.0,-380.0,-18288.0,2049.00
00:00:38.888,2268.0,-384.0,-18396.0,2155.26
00:00:38.920,2220.0,-424.0,-18268.0,2023.28
00:00:38.952,2272.0,-408.0,-18400.0,2160.23
00:00:38.984,2288.0,-412.0,-18348.0,2110.70
00:00:39.016,2312.0,-376.0,-18296.0,2061.33
00:00:39.048,2296.0,-420.0,-18408.0,2171.39
00:00:39.081,2340.0,-404.0,-18304.0,2073.39
00:00:39.113,2296.0,-328.0,-18460.0,2221.13
00:00:39.145,2296.0,-416.0,-18320.0,2084.00
00:00:39.178,2324.0,-448.0,-18284.0,2052.55
00:00:39.210,2224.0,-284.0,-18432.0,2183.86
00:00:39.242,2272.0,-384.0,-18324.0,2084.31
00:00:39.274,2312.0,-392.0,-18468.0,2232.28
00:00:39.307,2224.0,-440.0,-18368.0,2123.38
00:00:39.339,2244.0,-344.0,-18436.0,2191.25
00:00:39.371,2296.0,-476.0,-18296.0,2061.64
00:00:39.404,2308.0,-348.0,-18420.0,2183.29
00:00:39.436,2212.0,-356.0,-18440.0,2191.61
00:00:39.468,2264.0,-384.0,-18368.0,2126.99
00:00:39.501,2324.0,-368.0,-18400.0,2165.84
00:00:39.533,2264.0,-336.0,-18312.0,2070.48
00:00:39.564,2304.0,-384.0,-18424.0,2187.47
00:00:39.595,2200.0,-364.0,-18396.0,2146.66
00:00:39.628,2268.0,-308.0,-18328.0,2086.36
00:00:39.660,2368.0,-424.0,-18480.0,2251.92
00:00:39.691,2260.0,-436.0,-18484.0,2242.75
00:00:39.723,2336.0,-440.0,-18328.0,2097.51
00:00:39.756,2320.0,-400.0,-18412.0,2177.90
00:00:39.787,2208.0,-432.0,-18352.0,2105.40
00:00:39.819,2208.0,-412.0,-18412.0,2164.50
00:00:39.852,2256.0,-316.0,-18320.0,2077.09
00:00:39.884,2380.0,-396.0,-18332.0,2106.09
00:00:39.916,2232.0,-484.0,-18196.0,1954.77
00:00:39.948,2228.0,-456.0,-18404.0,2159.98
00:00:39.981,2320.0,-440.0,-18288.0,2055.82
00:00:40.013,2232.0,-388.0,-18204.0,1960.43
00:00:40.044,2200.0,-356.0,-18352.0,2102.82
00:00:40.077,2288.0,-444.0,-18332.0,2095.56
00:00:40.109,2292.0,-388.0,-18232.0,1995.60
00:00:40.141,2296.0,-500.0,-18408.0,2173.37
00:00:40.173,2256.0,-436.0,-18348.0,2107.32
00:00:40.206,2248.0,-404.0,-18512.0,2268.37
00:00:40.238,2304.0,-476.0,-18416.0,2181.67
00:00:40.270,2284.0,-448.0,-18408.0,2170.56
00:00:40.301,2200.0,-380.0,-18264.0,2015.95
00:00:40.334,2256.0,-304.0,-18460.0,2215.83
00:00:40.366,2308.0,-340.0,-18424.0,2187.11
00:00:40.398,2248.0,-368.0,-18208.0,1965.94
00:00:40.430,2268.0,-352.0,-18308.0,2067.30
00:00:40.462,2236.0,-392.0,-18464.0,2219.03
00:00:40.494,2236.0,-320.0,-18312.0,2066.78
00:00:40.527,2280.0,-412.0,-18288.0,2050.18
00:00:40.558,2264.0,-332.0,-18372.0,2129.95
00:00:40.590,2308.0,-408.0,-18304.0,2069.45
00:00:40.623,2356.0,-412.0,-18340.0,2111.30
00:00:40.655,2276.0,-412.0,-18256.0,2017.94
00:00:40.687,2300.0,-304.0,-18424.0,2185.50
00:00:40.719,2276.0,-364.0,-18284.0,2044.71
00:00:40.751,2204.0,-416.0,-18440.0,2191.91
00:00:40.784,2304.0,-444.0,-18364.0,2129.29
00:00:40.816,2316.0,-344.0,-18272.0,2037.41
00:00:40.849,2136.0,-392.0,-18312.0,2056.32
00:00:40.881,2296.0,-316.0,-18436.0,2197.11
00:00:40.913,2352.0,-412.0,-18476.0,2245.66
00:00:40.945,2256.0,-456.0,-18300.0,2060.17
00:00:40.978,2184.0,-460.0,-18392.0,2142.93
00:00:41.010,2300.0,-352.0,-18100.0,1864.94
00:00:41.042,2376.0,-380.0,-18380.0,2152.83
00:00:41.075,2188.0,-416.0,-18416.0,2166.19
00:00:41.107,2224.0,-340.0,-18280.0,2033.93
00:00:41.139,2248.0,-396.0,-18348.0,2105.44
00:00:41.171,2268.0,-368.0,-18336.0,2095.40
00:00:41.204,2236.0,-364.0,-18360.0,2115.24
00:00:41.236,2320.0,-472.0,-18396.0,2163.72
00:00:41.269,2288.0,-352.0,-18528.0,2288.05
00:00:41.301,2272.0,-428.0,-18252.0,2013.84
00:00:41.333,2200.0,-388.0,-18356.0,2107.44
00:00:41.364,2320.0,-300.0,-18216.0,1981.59
00:00:41.396,2316.0,-340.0,-18380.0,2144.46
00:00:41.429,2252.0,-316.0,-18256.0,2013.09
00:00:41.461,2212.0,-492.0,-18564.0,2317.79
00:00:41.493,2220.0,-444.0,-18388.0,2142.85
00:00:41.525,2312.0,-368.0,-18344.0,2108.79
00:00:41.558,2228.0,-500.0,-18328.0,2085.69
00:00:41.590,2304.0,-316.0,-18268.0,2031.43
00:00:41.622,2332.0,-316.0,-18156.0,1923.88
00:00:41.655,2192.0,-368.0,-18340.0,2090.20
00:00:41.687,2332.0,-344.0,-18220.0,1987.85
00:00:41.719,2200.0,-424.0,-18252.0,2005.00
00:00:41.752,2292.0,-452.0,-18340.0,2104.19
00:00:41.784,2232.0,-368.0,-18408.0,2162.47
00:00:41.816,2252.0,-352.0,-18440.0,2196.34
00:00:41.848,2264.0,-420.0,-18252.0,2012.67
00:00:41.881,2244.0,-360.0,-18432.0,2187.58
00:00:41.913,2340.0,-484.0,-18328.0,2099.11
00:00:41.944,2228.0,-460.0,-18144.0,1902.07
00:00:41.976,2340.0,-380.0,-18388.0,2156.19
00:00:42.009,2248.0,-452.0,-18312.0,2071.00
00:00:42.040,2340.0,-376.0,-18276.0,2045.03
00:00:42.072,2304.0,-324.0,-18256.0,2019.67
00:00:42.104,2288.0,-428.0,-18292.0,2055.51
00:00:42.137,2268.0,-356.0,-18440.0,2198.36
00:00:42.169,2248.0,-460.0,-18380.0,2138.68
00:00:42.201,2220.0,-340.0,-18412.0,2164.47
00:00:42.234,2208.0,-340.0,-18352.0,2103.48
00:00:42.266,2204.0,-404.0,-18392.0,2143.99
00:00:42.298,2292.0,-404.0,-18296.0,2059.43
00:00:42.331,2256.0,-360.0,-18240.0,1998.51
00:00:42.363,2272.0,-480.0,-18244.0,2007.19
00:00:42.395,2332.0,-368.0,-18364.0,2131.13
00:00:42.427,2248.0,-368.0,-18368.0,2124.71
00:00:42.460,2284.0,-408.0,-18276.0,2038.68
00:00:42.492,2264.0,-424.0,-18332.0,2092.14
00:00:42.524,2248.0,-384.0,-18352.0,2109.16
00:00:42.557,2188.0,-368.0,-18436.0,2185.03
00:00:42.589,2300.0,-416.0,-18304.0,2068.63
00:00:42.621,2256.0,-384.0,-18316.0,2074.41
00:00:42.652,2260.0,-404.0,-18348.0,2107.08
00:00:42.684,2276.0,-384.0,-18372.0,2132.43
00:00:42.716,2280.0,-400.0,-18488.0,2248.35
00:00:42.748,2284.0,-364.0,-18352.0,2113.16
00:00:42.779,2320.0,-344.0,-18460.0,2224.39
00:00:42.811,2252.0,-392.0,-18440.0,2197.14
00:00:42.843,2276.0,-416.0,-18308.0,2069.62
00:00:42.875,2252.0,-432.0,-18300.0,2059.11
00:00:42.908,2216.0,-272.0,-18268.0,2019.93
00:00:42.939,2232.0,-384.0,-18164.0,1920.65
00:00:42.972,2220.0,-492.0,-18324.0,2080.55
00:00:43.003,2288.0,-464.0,-18352.0,2115.90
00:00:43.036,2308.0,-352.0,-18280.0,2044.49
00:00:43.068,2288.0,-380.0,-18372.0,2133.82
00:00:43.099,2272.0,-328.0,-18168.0,1928.45
00:00:43.131,2324.0,-376.0,-18304.0,2070.78
00:00:43.163,2124.0,-464.0,-18340.0,2084.41
00:00:43.195,2296.0,-540.0,-18244.0,2011.84
00:00:43.227,2192.0,-464.0,-18192.0,1945.46
00:00:43.260,2256.0,-432.0,-18332.0,2091.35
00:00:43.291,2296.0,-332.0,-18412.0,2173.57
00:00:43.323,2232.0,-360.0,-18388.0,2142.47
00:00:43.356,2260.0,-392.0,-18352.0,2110.79
00:00:43.388,2268.0,-436.0,-18352.0,2112.75
00:00:43.420,2276.0,-380.0,-18448.0,2207.75
00:00:43.451,2272.0,-368.0,-18316.0,2076.05
00:00:43.484,2304.0,-360.0,-18208.0,1972.72
00:00:43.515,2320.0,-396.0,-18340.0,2106.40
00:00:43.547,2232.0,-376.0,-18332.0,2087.21
00:00:43.579,2248.0,-448.0,-18352.0,2110.60
00:00:43.612,2236.0,-356.0,-18368.0,2123.02
00:00:43.644,2280.0,-424.0,-18408.0,2169.51
00:00:43.675,2324.0,-372.0,-18416.0,2181.79
00:00:43.707,2216.0,-436.0,-18212.0,1967.50
00:00:43.740,2264.0,-372.0,-18284.0,2043.39
00:00:43.772,2272.0,-332.0,-18204.0,1964.24
00:00:43.804,2268.0,-468.0,-18336.0,2097.66
00:00:43.837,2256.0,-332.0,-18408.0,2164.70
00:00:43.868,2372.0,-400.0,-18340.0,2113.08
00:00:43.900,2232.0,-408.0,-18240.0,1996.58
00:00:43.932,2224.0,-336.0,-18364.0,2117.23
00:00:43.965,2352.0,-440.0,-18316.0,2087.64
00:00:43.997,2324.0,-420.0,-18288.0,2055.86
00:00:44.029,2316.0,-432.0,-18396.0,2162.25
00:00:44.062,2296.0,-376.0,-18340.0,2102.98
00:00:44.093,2164.0,-392.0,-18420.0,2166.82
00:00:44.125,2324.0,-352.0,-18388.0,2153.62
00:00:44.157,2272.0,-328.0,-18312.0,2071.32
00:00:44.190,2192.0,-360.0,-18460.0,2209.17
00:00:44.222,2224.0,-372.0,-18360.0,2113.95
00:00:44.254,2316.0,-452.0,-18388.0,2154.79
00:00:44.287,2368.0,-364.0,-18368.0,2139.59
00:00:44.319,2212.0,-404.0,-18276.0,2029.81
00:00:44.351,2304.0,-360.0,-18460.0,2222.71
00:00:44.384,2176.0,-424.0,-18224.0,1974.35
00:00:44.416,2236.0,-304.0,-18344.0,2098.27
00:00:44.447,2276.0,-472.0,-18320.0,2082.87
00:00:44.478,2316.0,-392.0,-18252.0,2018.53
00:00:44.511,2288.0,-352.0,-18268.0,2030.09
00:00:44.542,2252.0,-440.0,-18400.0,2158.52
00:00:44.573,2296.0,-368.0,-18264.0,2027.43
00:00:44.605,2312.0,-348.0,-18316.0,2080.62
00:00:44.638,2240.0,-412.0,-18412.0,2168.33
00:00:44.669,2304.0,-448.0,-18392.0,2157.16
00:00:44.701,2328.0,-376.0,-18420.0,2186.34
00:00:44.734,2252.0,-312.0,-18348.0,2104.32
00:00:44.766,2384.0,-336.0,-18544.0,2315.63
00:00:44.798,2256.0,-420.0,-18408.0,2166.48
00:00:44.830,2256.0,-408.0,-18432.0,2190.03
00:00:44.863,2340.0,-348.0,-18248.0,2016.71
00:00:44.895,2232.0,-364.0,-18268.0,2023.45
00:00:44.927,2256.0,-488.0,-18164.0,1926.07
00:00:44.960,2244.0,-272.0,-18300.0,2055.08
00:00:44.992,2284.0,-384.0,-18304.0,2065.95
00:00:45.024,2232.0,-336.0,-18372.0,2126.14
00:00:45.056,2220.0,-380.0,-18424.0,2177.16
00:00:45.089,2260.0,-420.0,-18256.0,2016.15
00:00:45.120,2280.0,-412.0,-18408.0,2169.24
00:00:45.152,2304.0,-384.0,-18292.0,2056.53
00:00:45.185,2324.0,-384.0,-18384.0,2150.29
00:00:45.216,2180.0,-352.0,-18320.0,2068.61
00:00:45.248,2212.0,-380.0,-18276.0,2029.30
00:00:45.280,2288.0,-360.0,-18396.0,2157.23
00:00:45.313,2252.0,-336.0,-18384.0,2140.47
00:00:45.345,2308.0,-324.0,-18252.0,2016.20
00:00:45.377,2228.0,-360.0,-18420.0,2173.75
00:00:45.409,2244.0,-464.0,-18416.0,2174.01
00:00:45.442,2248.0,-376.0,-18396.0,2152.66
00:00:45.474,2200.0,-356.0,-18292.0,2043.26
00:00:45.506,2276.0,-376.0,-18440.0,2199.73
00:00:45.539,2336.0,-460.0,-18504.0,2272.54
00:00:45.571,2340.0,-380.0,-18336.0,2104.62
00:00:45.603,2352.0,-392.0,-18420.0,2189.69
00:00:45.636,2320.0,-472.0,-18240.0,2009.01
00:00:45.668,2188.0,-424.0,-18484.0,2233.88
00:00:45.700,2272.0,-412.0,-18440.0,2200.01
00:00:45.732,2256.0,-420.0,-18272.0,2031.53
00:00:45.765,2272.0,-412.0,-18340.0,2100.79
00:00:45.797,2332.0,-352.0,-18424.0,2190.33
00:00:45.829,2344.0,-404.0,-18320.0,2089.76
00:00:45.862,2312.0,-372.0,-18368.0,2132.67
00:00:45.894,2216.0,-352.0,-18260.0,2013.34
00:00:45.926,2280.0,-340.0,-18304.0,2064.59
00:00:45.958,2296.0,-384.0,-18372.0,2134.89
00:00:45.990,2172.0,-352.0,-18216.0,1964.41
00:00:46.022,2288.0,-368.0,-18276.0,2038.34
00:00:46.054,2316.0,-480.0,-18488.0,2254.68
00:00:46.086,2236.0,-400.0,-18340.0,2096.13
00:00:46.119,2252.0,-448.0,-18348.0,2107.11
00:00:46.151,2236.0,-468.0,-18304.0,2062.01
00:00:46.183,2300.0,-404.0,-18188.0,1953.30
00:00:46.216,2316.0,-392.0,-18372.0,2137.55
00:00:46.248,2312.0,-344.0,-18232.0,1997.23
00:00:46.280,2260.0,-348.0,-18392.0,2149.60
00:00:46.313,2236.0,-380.0,-18288.0,2044.10
00:00:46.345,2304.0,-320.0,-18328.0,2091.02
00:00:46.377,2144.0,-440.0,-18348.0,2094.08
00:00:46.409,2272.0,-388.0,-18288.0,2048.67
00:00:46.442,2260.0,-428.0,-18512.0,2270.35
00:00:46.474,2252.0,-316.0,-18448.0,2203.63
00:00:46.506,2348.0,-348.0,-18200.0,1970.13
00:00:46.539,2284.0,-336.0,-18380.0,2140.42
00:00:46.571,2288.0,-332.0,-18244.0,2005.91
00:00:46.603,2248.0,-412.0,-18364.0,2121.67
00:00:46.636,2352.0,-416.0,-18344.0,2114.85
00:00:46.668,2256.0,-404.0,-18424.0,2182.00
00:00:46.700,2248.0,-240.0,-18332.0,2086.88
00:00:46.732,2280.0,-412.0,-18280.0,2042.25
00:00:46.765,2296.0,-412.0,-18412.0,2175.18
00:00:46.797,2252.0,-380.0,-18324.0,2081.78
00:00:46.829,2248.0,-404.0,-18364.0,2121.49
00:00:46.861,2256.0,-388.0,-18248.0,2007.02
00:00:46.894,2352.0,-472.0,-18280.0,2052.73
00:00:46.926,2312.0,-376.0,-18332.0,2097.04
00:00:46.958,2308.0,-448.0,-18504.0,2268.76
00:00:46.991,2340.0,-400.0,-18408.0,2176.44
00:00:47.023,2284.0,-456.0,-18308.0,2071.55
00:00:47.054,2200.0,-452.0,-18176.0,1930.24
00:00:47.086,2200.0,-384.0,-18372.0,2123.24
00:00:47.119,2268.0,-420.0,-18232.0,1993.32
00:00:47.151,2268.0,-428.0,-18424.0,2184.00
00:00:47.183,2260.0,-328.0,-18376.0,2133.36
00:00:47.216,2288.0,-424.0,-18308.0,2071.29
00:00:47.247,2256.0,-404.0,-18316.0,2074.84
00:00:47.279,2300.0,-420.0,-18360.0,2124.27
00:00:47.312,2332.0,-308.0,-18444.0,2209.39
00:00:47.343,2236.0,-336.0,-18380.0,2134.56
00:00:47.376,2228.0,-392.0,-18364.0,2118.81
00:00:47.408,2376.0,-436.0,-18236.0,2011.30
00:00:47.441,2292.0,-440.0,-18404.0,2167.39
00:00:47.473,2236.0,-456.0,-18404.0,2160.94
00:00:47.505,2288.0,-352.0,-18232.0,1994.38
00:00:47.537,2312.0,-252.0,-18212.0,1975.90
00:00:47.570,2288.0,-388.0,-18320.0,2082.40
00:00:47.602,2304.0,-400.0,-18292.0,2056.87
00:00:47.634,2236.0,-448.0,-18472.0,2228.23
00:00:47.667,2280.0,-500.0,-18420.0,2183.30
00:00:47.699,2244.0,-428.0,-18452.0,2208.88
00:00:47.731,2340.0,-364.0,-18356.0,2124.13
00:00:47.762,2312.0,-332.0,-18304.0,2068.42
00:00:47.795,2228.0,-436.0,-18248.0,2004.68
00:00:47.827,2260.0,-360.0,-18380.0,2137.92
00:00:47.859,2232.0,-340.0,-18136.0,1891.99
00:00:47.892,2328.0,-416.0,-18308.0,2076.11
00:00:47.923,2324.0,-372.0,-18284.0,2050.86
00:00:47.955,2288.0,-336.0,-18288.0,2049.63
00:00:47.987,2272.0,-384.0,-18316.0,2076.37
00:00:48.020,2156.0,-392.0,-18340.0,2086.45
00:00:48.052,2216.0,-444.0,-18288.0,2043.12
00:00:48.084,2332.0,-344.0,-18328.0,2094.96
00:00:48.117,2332.0,-336.0,-18332.0,2098.79
00:00:48.148,2296.0,-248.0,-18412.0,2172.26
00:00:48.179,2304.0,-436.0,-18264.0,2029.91
00:00:48.210,2292.0,-264.0,-18308.0,2068.80
00:00:48.243,2244.0,-400.0,-18388.0,2144.74
00:00:48.274,2224.0,-412.0,-18420.0,2174.35
00:00:48.306,2344.0,-440.0,-18416.0,2185.79
00:00:48.338,2300.0,-404.0,-18308.0,2072.33
00:00:48.371,2220.0,-412.0,-18372.0,2126.23
00:00:48.416,2264.0,-444.0,-18376.0,2136.26
00:00:48.435,2288.0,-372.0,-18356.0,2117.79
00:00:48.468,2252.0,-404.0,-18376.0,2133.89
00:00:48.500,2308.0,-444.0,-18332.0,2098.05
00:00:48.532,2292.0,-340.0,-18400.0,2161.32
00:00:48.564,2264.0,-332.0,-18272.0,2030.72
00:00:48.597,2280.0,-384.0,-18252.0,2013.86
00:00:48.629,2308.0,-496.0,-18404.0,2170.79
00:00:48.661,2272.0,-436.0,-18484.0,2244.21
00:00:48.694,2224.0,-344.0,-18304.0,2057.83
00:00:48.726,2312.0,-408.0,-18400.0,2165.17
00:00:48.757,2272.0,-352.0,-18332.0,2091.61
00:00:48.788,2452.0,-404.0,-18252.0,2036.40
00:00:48.821,2292.0,-388.0,-18404.0,2166.23
00:00:48.853,2248.0,-480.0,-18240.0,2000.27
00:00:48.885,2184.0,-308.0,-18384.0,2131.84
00:00:48.918,2236.0,-420.0,-18328.0,2084.67
00:00:48.950,2256.0,-424.0,-18264.0,2023.69
00:00:48.982,2316.0,-452.0,-18308.0,2075.44
00:00:49.014,2304.0,-408.0,-18396.0,2160.21
00:00:49.047,2260.0,-404.0,-18288.0,2047.54
00:00:49.079,2220.0,-360.0,-18372.0,2125.14
00:00:49.110,2292.0,-332.0,-18200.0,1962.76
00:00:49.143,2292.0,-376.0,-18192.0,1955.67
00:00:49.175,2328.0,-336.0,-18288.0,2054.64
00:00:49.207,2272.0,-464.0,-18416.0,2177.42
00:00:49.239,2324.0,-372.0,-18316.0,2082.60
00:00:49.272,2308.0,-404.0,-18172.0,1938.44
00:00:49.304,2252.0,-388.0,-18232.0,1990.65
00:00:49.335,2276.0,-416.0,-18412.0,2172.80
00:00:49.368,2244.0,-412.0,-18256.0,2014.01
00:00:49.400,2312.0,-416.0,-18536.0,2300.26
00:00:49.432,2264.0,-488.0,-18420.0,2181.03
00:00:49.463,2200.0,-476.0,-18380.0,2133.32
00:00:49.495,2280.0,-408.0,-18360.0,2121.53
00:00:49.527,2292.0,-428.0,-18348.0,2111.55
00:00:49.559,2264.0,-316.0,-18488.0,2244.79
00:00:49.591,2220.0,-424.0,-18364.0,2118.56
00:00:49.624,2180.0,-460.0,-18380.0,2130.55
00:00:49.655,2240.0,-424.0,-18444.0,2200.36
00:00:49.687,2296.0,-424.0,-18448.0,2211.16
00:00:49.719,2260.0,-316.0,-18224.0,1982.32
00:00:49.751,2336.0,-400.0,-18224.0,1993.46
00:00:49.783,2208.0,-308.0,-18292.0,2043.35
00:00:49.815,2280.0,-400.0,-18260.0,2022.14
00:00:49.848,2224.0,-420.0,-18396.0,2150.71
00:00:49.880,2296.0,-440.0,-18396.0,2159.95
00:00:49.911,2336.0,-372.0,-18408.0,2175.36
00:00:49.944,2300.0,-404.0,-18244.0,2008.85
00:00:49.976,2252.0,-356.0,-18216.0,1974.13
00:00:50.008,2288.0,-312.0,-18340.0,2100.80
00:00:50.040,2152.0,-340.0,-18308.0,2053.18
00:00:50.073,2304.0,-440.0,-18304.0,2069.68
00:00:50.105,2376.0,-444.0,-18296.0,2070.98
00:00:50.137,2264.0,-384.0,-18448.0,2206.37
00:00:50.170,2284.0,-444.0,-18340.0,2103.01
00:00:50.202,2304.0,-340.0,-18364.0,2127.09
00:00:50.234,2260.0,-272.0,-18408.0,2164.21
00:00:50.266,2296.0,-424.0,-18312.0,2076.25
00:00:50.299,2284.0,-312.0,-18300.0,2060.62
00:00:50.331,2252.0,-384.0,-18472.0,2228.73
00:00:50.363,2344.0,-424.0,-18264.0,2034.68
00:00:50.395,2364.0,-416.0,-18416.0,2187.77
00:00:50.426,2236.0,-416.0,-18352.0,2108.39
00:00:50.457,2224.0,-388.0,-18364.0,2118.25
00:00:50.489,2232.0,-392.0,-18536.0,2290.01
00:00:50.522,2316.0,-384.0,-18432.0,2196.90
00:00:50.553,2332.0,-412.0,-18272.0,2040.82
00:00:50.585,2388.0,-352.0,-18320.0,2094.33
00:00:50.618,2180.0,-488.0,-18328.0,2079.64
00:00:50.650,2236.0,-364.0,-18284.0,2039.81
00:00:50.682,2232.0,-364.0,-18204.0,1959.93
00:00:50.714,2244.0,-416.0,-18248.0,2006.16
00:00:50.747,2296.0,-368.0,-18368.0,2130.60
00:00:50.779,2260.0,-464.0,-18344.0,2104.52
00:00:50.811,2240.0,-404.0,-18476.0,2231.68
00:00:50.843,2252.0,-420.0,-18200.0,1959.61
00:00:50.875,2256.0,-236.0,-18296.0,2052.07
00:00:50.907,2360.0,-356.0,-18320.0,2090.81
00:00:50.939,2388.0,-424.0,-18328.0,2103.78
00:00:50.971,2356.0,-360.0,-18372.0,2141.95
00:00:51.003,2264.0,-448.0,-18400.0,2160.17
00:00:51.034,2232.0,-328.0,-18244.0,1998.95
00:00:51.066,2276.0,-352.0,-18364.0,2123.85
00:00:51.099,2272.0,-440.0,-18308.0,2069.68
00:00:51.131,2260.0,-532.0,-18340.0,2102.38
00:00:51.163,2260.0,-436.0,-18416.0,2175.28
00:00:51.196,2300.0,-456.0,-18472.0,2236.22
00:00:51.228,2304.0,-468.0,-18164.0,1931.52
00:00:51.260,2304.0,-404.0,-18368.0,2132.35
00:00:51.292,2308.0,-308.0,-18332.0,2095.28
00:00:51.325,2252.0,-408.0,-18348.0,2106.19
00:00:51.356,2152.0,-408.0,-18292.0,2038.67
00:00:51.388,2284.0,-404.0,-18244.0,2006.85
00:00:51.421,2292.0,-344.0,-18236.0,1998.69
00:00:51.453,2208.0,-364.0,-18364.0,2115.84
00:00:51.485,2208.0,-420.0,-18368.0,2121.00
00:00:51.517,2348.0,-372.0,-18376.0,2145.14
00:00:51.549,2188.0,-468.0,-18304.0,2056.25
00:00:51.581,2220.0,-400.0,-18268.0,2022.74
00:00:51.613,2268.0,-416.0,-18348.0,2108.32
00:00:51.646,2308.0,-444.0,-18360.0,2125.82
00:00:51.678,2280.0,-344.0,-18400.0,2159.91
00:00:51.710,2208.0,-396.0,-18416.0,2168.12
00:00:51.742,2276.0,-404.0,-18344.0,2105.07
00:00:51.776,2272.0,-420.0,-18172.0,1934.30
00:00:51.808,2272.0,-336.0,-18300.0,2059.56
00:00:51.839,2220.0,-372.0,-18420.0,2173.03
00:00:51.872,2212.0,-328.0,-18340.0,2091.83
00:00:51.904,2276.0,-468.0,-18268.0,2031.18
00:00:51.935,2216.0,-468.0,-18316.0,2071.50
00:00:51.967,2304.0,-316.0,-18232.0,1995.72
00:00:52.000,2200.0,-432.0,-18304.0,2056.80
00:00:52.032,2292.0,-312.0,-18280.0,2041.77
00:00:52.064,2260.0,-464.0,-18364.0,2124.36
00:00:52.097,2252.0,-424.0,-18340.0,2098.61
00:00:52.129,2320.0,-420.0,-18428.0,2194.21
00:00:52.161,2272.0,-440.0,-18500.0,2260.18
00:00:52.193,2220.0,-408.0,-18380.0,2134.08
00:00:52.226,2304.0,-380.0,-18320.0,2084.22
00:00:52.258,2280.0,-408.0,-18316.0,2077.87
00:00:52.290,2192.0,-280.0,-18452.0,2199.85
00:00:52.322,2252.0,-408.0,-18384.0,2141.91
00:00:52.354,2324.0,-384.0,-18324.0,2090.78
00:00:52.386,2308.0,-304.0,-18220.0,1984.12
00:00:52.417,2252.0,-376.0,-18284.0,2042.00
00:00:52.449,2308.0,-348.0,-18400.0,2163.45
00:00:52.481,2312.0,-404.0,-18324.0,2089.70
00:00:52.513,2280.0,-400.0,-18540.0,2299.95
00:00:52.545,2288.0,-392.0,-18344.0,2106.29
00:00:52.578,2228.0,-384.0,-18352.0,2106.74
00:00:52.610,2236.0,-324.0,-18360.0,2114.49
00:00:52.641,2208.0,-420.0,-18340.0,2093.21
00:00:52.674,2244.0,-400.0,-18428.0,2184.43
00:00:52.706,2296.0,-332.0,-18216.0,1979.13
00:00:52.737,2388.0,-376.0,-18372.0,2146.36
00:00:52.770,2348.0,-392.0,-18192.0,1963.09
00:00:52.801,2252.0,-380.0,-18408.0,2165.13
00:00:52.833,2252.0,-348.0,-18428.0,2184.35
00:00:52.865,2348.0,-224.0,-18420.0,2186.40
00:00:52.897,2360.0,-312.0,-18240.0,2010.69
00:00:52.930,2204.0,-384.0,-18340.0,2091.95
00:00:52.962,2308.0,-452.0,-18460.0,2225.21
00:00:52.994,2280.0,-444.0,-18316.0,2078.70
00:00:53.027,2204.0,-440.0,-18184.0,1938.37
00:00:53.058,2268.0,-360.0,-18312.0,2071.43
00:00:53.090,2276.0,-340.0,-18324.0,2083.94
00:00:53.122,2316.0,-332.0,-18300.0,2064.96
00:00:53.155,2152.0,-400.0,-18288.0,2034.52
00:00:53.187,2344.0,-368.0,-18288.0,2057.28
00:00:53.219,2320.0,-384.0,-18320.0,2086.31
00:00:53.252,2280.0,-404.0,-18444.0,2204.78
00:00:53.284,2224.0,-280.0,-18368.0,2120.27
00:00:53.316,2216.0,-324.0,-18200.0,1953.27
00:00:53.349,2256.0,-316.0,-18392.0,2148.54
00:00:53.381,2284.0,-384.0,-18308.0,2069.91
00:00:53.413,2240.0,-416.0,-18416.0,2172.39
00:00:53.445,2256.0,-332.0,-18304.0,2061.49
00:00:53.478,2276.0,-368.0,-18440.0,2199.57
00:00:53.509,2324.0,-468.0,-18364.0,2132.38
00:00:53.541,2200.0,-336.0,-18244.0,1995.24
00:00:53.574,2176.0,-428.0,-18280.0,2030.03
00:00:53.606,2252.0,-388.0,-18460.0,2216.90
00:00:53.638,2292.0,-328.0,-18308.0,2069.83
00:00:53.669,2160.0,-384.0,-18444.0,2190.02
00:00:53.702,2340.0,-408.0,-18328.0,2097.28
00:00:53.734,2348.0,-380.0,-18400.0,2169.10
00:00:53.766,2208.0,-428.0,-18256.0,2010.02
00:00:53.799,2264.0,-384.0,-18324.0,2083.33
00:00:53.831,2316.0,-344.0,-18480.0,2243.74
00:00:53.862,2232.0,-392.0,-18384.0,2139.15
00:00:53.894,2344.0,-420.0,-18328.0,2098.05
00:00:53.927,2208.0,-384.0,-18260.0,2013.02
00:00:53.959,2268.0,-280.0,-18312.0,2070.04
00:00:53.991,2288.0,-328.0,-18364.0,2124.89
00:00:54.023,2288.0,-352.0,-18452.0,2212.64
00:00:54.056,2132.0,-436.0,-18432.0,2176.01
00:00:54.088,2332.0,-324.0,-18348.0,2114.44
00:00:54.120,2276.0,-352.0,-18300.0,2060.35
00:00:54.153,2256.0,-460.0,-18364.0,2123.77
00:00:54.185,2304.0,-300.0,-18328.0,2090.69
00:00:54.217,2296.0,-424.0,-18260.0,2024.67
00:00:54.250,2268.0,-376.0,-18280.0,2040.00
00:00:54.282,2192.0,-392.0,-18324.0,2074.81
00:00:54.314,2336.0,-356.0,-18288.0,2056.03
00:00:54.346,2260.0,-416.0,-18368.0,2127.19
00:00:54.378,2312.0,-340.0,-18348.0,2112.22
00:00:54.410,2304.0,-352.0,-18348.0,2111.44
00:00:54.442,2292.0,-304.0,-18356.0,2117.04
00:00:54.475,2304.0,-420.0,-18400.0,2164.45
00:00:54.507,2232.0,-408.0,-18392.0,2147.43
00:00:54.539,2192.0,-400.0,-18312.0,2063.07
00:00:54.571,2288.0,-428.0,-18252.0,2015.83
00:00:54.604,2272.0,-444.0,-18264.0,2026.13
00:00:54.636,2364.0,-308.0,-18364.0,2134.10
00:00:54.668,2244.0,-464.0,-18368.0,2126.38
00:00:54.701,2260.0,-420.0,-18404.0,2163.00
00:00:54.733,2348.0,-396.0,-18308.0,2078.20
00:00:54.764,2184.0,-448.0,-18484.0,2233.97
00:00:54.795,2308.0,-376.0,-18368.0,2132.25
00:00:54.828,2224.0,-316.0,-18416.0,2168.50
00:00:54.860,2156.0,-432.0,-18512.0,2258.13
00:00:54.892,2344.0,-428.0,-18404.0,2173.61
00:00:54.924,2324.0,-368.0,-18340.0,2106.32
00:00:54.957,2228.0,-364.0,-18256.0,2011.05
00:00:54.989,2388.0,-400.0,-18276.0,2051.69
00:00:55.021,2324.0,-380.0,-18380.0,2146.24
00:00:55.054,2304.0,-412.0,-18272.0,2037.30
00:00:55.086,2248.0,-380.0,-18416.0,2172.59
00:00:55.118,2296.0,-404.0,-18392.0,2155.16
00:00:55.150,2260.0,-384.0,-18268.0,2027.27
00:00:55.182,2228.0,-416.0,-18208.0,1964.52
00:00:55.214,2308.0,-408.0,-18308.0,2073.42
00:00:55.246,2376.0,-396.0,-18324.0,2097.64
00:00:55.279,2216.0,-412.0,-18364.0,2117.81
00:00:55.311,2304.0,-412.0,-18236.0,2001.59
00:00:55.343,2256.0,-396.0,-18244.0,2003.22
00:00:55.374,2212.0,-436.0,-18432.0,2185.37
00:00:55.407,2324.0,-444.0,-18336.0,2104.02
00:00:55.439,2340.0,-388.0,-18316.0,2084.95
00:00:55.471,2268.0,-436.0,-18236.0,1997.67
00:00:55.504,2348.0,-452.0,-18396.0,2166.75
00:00:55.535,2264.0,-408.0,-18244.0,2004.47
00:00:55.567,2288.0,-344.0,-18340.0,2101.37
00:00:55.599,2308.0,-420.0,-18280.0,2045.91
00:00:55.631,2212.0,-372.0,-18260.0,2013.25
00:00:55.663,2228.0,-456.0,-18320.0,2076.62
00:00:55.695,2264.0,-324.0,-18400.0,2157.59
00:00:55.728,2312.0,-344.0,-18232.0,1997.23
00:00:55.759,2252.0,-372.0,-18368.0,2125.28
00:00:55.791,2208.0,-396.0,-18216.0,1969.60
00:00:55.823,2248.0,-400.0,-18240.0,1998.36
00:00:55.856,2244.0,-392.0,-18364.0,2120.75
00:00:55.888,2252.0,-320.0,-18200.0,1957.59
00:00:55.920,2180.0,-440.0,-18424.0,2173.74
00:00:55.953,2296.0,-420.0,-18172.0,1937.29
00:00:55.985,2280.0,-372.0,-18324.0,2085.05
00:00:56.017,2312.0,-360.0,-18340.0,2104.66
00:00:56.049,2260.0,-424.0,-18344.0,2103.56
00:00:56.083,2320.0,-412.0,-18456.0,2221.81
00:00:56.115,2252.0,-436.0,-18348.0,2106.83
00:00:56.147,2196.0,-432.0,-18224.0,1976.92
00:00:56.180,2236.0,-404.0,-18276.0,2032.71
00:00:56.212,2252.0,-356.0,-18384.0,2140.84
00:00:56.243,2216.0,-372.0,-18344.0,2097.11
00:00:56.274,2324.0,-384.0,-18564.0,2328.84
00:00:56.307,2336.0,-368.0,-18304.0,2072.13
00:00:56.338,2260.0,-384.0,-18364.0,2122.53
00:00:56.370,2356.0,-384.0,-18348.0,2118.63
00:00:56.403,2340.0,-468.0,-18368.0,2138.37
00:00:56.435,2280.0,-428.0,-18348.0,2110.07
00:00:56.467,2356.0,-388.0,-18300.0,2071.12
00:00:56.498,2236.0,-412.0,-18224.0,1981.28
00:00:56.530,2308.0,-368.0,-18388.0,2151.93
00:00:56.562,2320.0,-436.0,-18480.0,2246.16
00:00:56.594,2304.0,-380.0,-18216.0,1981.06
00:00:56.626,2200.0,-392.0,-18320.0,2071.79
00:00:56.659,2172.0,-404.0,-18364.0,2112.41
00:00:56.691,2296.0,-292.0,-18380.0,2141.15
00:00:56.723,2376.0,-352.0,-18324.0,2096.75
00:00:56.755,2304.0,-476.0,-18296.0,2062.64
00:00:56.786,2324.0,-324.0,-18256.0,2022.18
00:00:56.818,2208.0,-360.0,-18380.0,2131.65
00:00:56.849,2256.0,-388.0,-18412.0,2169.75
00:00:56.882,2316.0,-368.0,-18316.0,2081.51
00:00:56.914,2220.0,-404.0,-18148.0,1903.74
00:00:56.946,2356.0,-368.0,-18316.0,2086.57
00:00:56.978,2212.0,-424.0,-18300.0,2054.08
00:00:57.011,2308.0,-384.0,-18424.0,2187.97
00:00:57.043,2256.0,-320.0,-18380.0,2136.70
00:00:57.075,2208.0,-376.0,-18396.0,2147.85
00:00:57.108,2276.0,-456.0,-18216.0,1979.30
00:00:57.140,2252.0,-300.0,-18260.0,2016.79
00:00:57.172,2280.0,-324.0,-18408.0,2167.49
00:00:57.205,2152.0,-404.0,-18396.0,2141.85
00:00:57.237,2316.0,-384.0,-18340.0,2105.64
00:00:57.269,2296.0,-352.0,-18320.0,2082.67
00:00:57.301,2288.0,-392.0,-18328.0,2090.42
00:00:57.334,2264.0,-368.0,-18324.0,2083.00
00:00:57.365,2256.0,-488.0,-18200.0,1961.78
00:00:57.397,2180.0,-248.0,-18264.0,2011.31
00:00:57.430,2416.0,-448.0,-18348.0,2127.80
00:00:57.462,2240.0,-488.0,-18380.0,2138.42
00:00:57.494,2152.0,-372.0,-18368.0,2113.38
00:00:57.525,2252.0,-380.0,-18200.0,1958.73
00:00:57.558,2300.0,-368.0,-18264.0,2027.93
00:00:57.589,2352.0,-316.0,-18248.0,2017.66
00:00:57.621,2404.0,-448.0,-18436.0,2213.47
00:00:57.653,2188.0,-340.0,-18388.0,2136.84
00:00:57.685,2216.0,-412.0,-18232.0,1986.80
00:00:57.717,2208.0,-484.0,-18368.0,2122.56
00:00:57.749,2404.0,-340.0,-18252.0,2028.78
00:00:57.782,2324.0,-396.0,-18412.0,2178.31
00:00:57.814,2208.0,-368.0,-18492.0,2242.99
00:00:57.846,2220.0,-424.0,-18224.0,1979.61
00:00:57.878,2208.0,-388.0,-18428.0,2179.86
00:00:57.911,2368.0,-428.0,-18276.0,2049.74
00:00:57.943,2296.0,-428.0,-18368.0,2131.89
00:00:57.975,2276.0,-464.0,-18388.0,2150.13
00:00:58.008,2276.0,-332.0,-18424.0,2183.02
00:00:58.040,2120.0,-352.0,-18508.0,2248.35
00:00:58.072,2308.0,-376.0,-18392.0,2156.06
00:00:58.105,2280.0,-500.0,-18468.0,2230.92
00:00:58.137,2272.0,-444.0,-18336.0,2097.56
00:00:58.169,2344.0,-360.0,-18356.0,2124.56
00:00:58.200,2336.0,-408.0,-18400.0,2168.18
00:00:58.233,2220.0,-364.0,-18444.0,2196.69
00:00:58.265,2304.0,-304.0,-18180.0,1943.94
00:00:58.297,2260.0,-400.0,-18308.0,2067.30
00:00:58.329,2248.0,-404.0,-18276.0,2034.17
00:00:58.362,2292.0,-396.0,-18336.0,2098.94
00:00:58.393,2236.0,-324.0,-18316.0,2070.82
00:00:58.425,2304.0,-332.0,-18396.0,2158.69
00:00:58.457,2292.0,-340.0,-18380.0,2141.48
00:00:58.488,2244.0,-428.0,-18296.0,2054.07
00:00:58.520,2252.0,-396.0,-18480.0,2236.92
00:00:58.552,2208.0,-304.0,-18300.0,2051.23
00:00:58.585,2212.0,-408.0,-18400.0,2152.97
00:00:58.616,2264.0,-416.0,-18336.0,2095.93
00:00:58.648,2348.0,-388.0,-18388.0,2157.36
00:00:58.681,2252.0,-412.0,-18340.0,2098.34
00:00:58.713,2312.0,-436.0,-18340.0,2106.30
00:00:58.745,2296.0,-320.0,-18452.0,2213.05
00:00:58.777,2276.0,-408.0,-18332.0,2093.25
00:00:58.810,2356.0,-332.0,-18344.0,2113.66
00:00:58.842,2304.0,-384.0,-18312.0,2076.37
00:00:58.874,2284.0,-328.0,-18292.0,2052.96
00:00:58.907,2188.0,-376.0,-18360.0,2109.74
00:00:58.939,2324.0,-384.0,-18312.0,2078.88
00:00:58.971,2252.0,-420.0,-18156.0,1915.95
00:00:59.003,2236.0,-412.0,-18280.0,2036.85
00:00:59.035,2276.0,-392.0,-18332.0,2092.91
00:00:59.067,2248.0,-364.0,-18336.0,2092.87
00:00:59.099,2208.0,-488.0,-18228.0,1983.73
00:00:59.130,2348.0,-360.0,-18280.0,2049.69
00:00:59.163,2288.0,-464.0,-18360.0,2123.83
00:00:59.195,2332.0,-440.0,-18228.0,1997.83
00:00:59.227,2300.0,-452.0,-18332.0,2097.25
00:00:59.260,2200.0,-464.0,-18400.0,2152.86
00:00:59.292,2292.0,-396.0,-18388.0,2150.53
00:00:59.324,2252.0,-360.0,-18372.0,2129.01
00:00:59.356,2236.0,-340.0,-18380.0,2134.63
00:00:59.389,2316.0,-336.0,-18416.0,2180.10
00:00:59.421,2268.0,-380.0,-18276.0,2036.11
00:00:59.453,2188.0,-408.0,-18424.0,2173.95
00:00:59.486,2324.0,-348.0,-18340.0,2105.93
00:00:59.517,2232.0,-344.0,-18224.0,1979.40
00:00:59.549,2252.0,-380.0,-18412.0,2169.10
00:00:59.582,2384.0,-344.0,-18224.0,1998.49
00:00:59.614,2292.0,-360.0,-18296.0,2058.52
00:00:59.646,2328.0,-352.0,-18420.0,2185.87
00:00:59.678,2208.0,-376.0,-18280.0,2032.71
00:00:59.711,2280.0,-352.0,-18340.0,2100.53
00:00:59.743,2288.0,-308.0,-18368.0,2128.52
00:00:59.775,2352.0,-420.0,-18316.0,2087.17
00:00:59.808,2220.0,-356.0,-18388.0,2140.95
00:00:59.840,2292.0,-412.0,-18284.0,2047.70
00:00:59.871,2292.0,-432.0,-18224.0,1988.64
00:00:59.903,2364.0,-396.0,-18392.0,2163.53
00:00:59.936,2308.0,-428.0,-18356.0,2121.48
00:00:59.968,2252.0,-364.0,-18308.0,2065.58
00:00:59.999,2116.0,-384.0,-18380.0,2121.39
00:01:00.031,2376.0,-384.0,-18380.0,2152.92
00:01:00.064,2212.0,-436.0,-18424.0,2177.43
00:01:00.096,2384.0,-464.0,-18256.0,2032.85
00:01:00.128,2196.0,-404.0,-18368.0,2119.22
00:01:00.161,2160.0,-504.0,-18548.0,2296.15
00:01:00.193,2288.0,-408.0,-18332.0,2094.73
00:01:00.225,2320.0,-372.0,-18420.0,2185.25
00:01:00.257,2280.0,-388.0,-18256.0,2017.92
00:01:00.290,2264.0,-396.0,-18288.0,2047.86
00:01:00.322,2352.0,-412.0,-18372.0,2142.52
00:01:00.353,2316.0,-344.0,-18264.0,2029.47
00:01:00.385,2332.0,-424.0,-18240.0,2009.36
00:01:00.417,2296.0,-364.0,-18392.0,2154.33
00:01:00.449,2324.0,-388.0,-18364.0,2130.54
00:01:00.481,2256.0,-396.0,-18280.0,2038.94
00:01:00.514,2352.0,-280.0,-18336.0,2104.35
00:01:00.546,2272.0,-400.0,-18320.0,2080.68
00:01:00.578,2236.0,-360.0,-18268.0,2023.85
00:01:00.611,2312.0,-476.0,-18272.0,2039.84
00:01:00.643,2212.0,-288.0,-18300.0,2051.45
00:01:00.675,2180.0,-444.0,-18352.0,2102.36
00:01:00.707,2280.0,-532.0,-18280.0,2045.32
00:01:00.740,2228.0,-352.0,-18396.0,2149.77
00:01:00.772,2276.0,-332.0,-18272.0,2032.20
00:01:00.804,2324.0,-320.0,-18284.0,2049.88
00:01:00.837,2332.0,-396.0,-18248.0,2016.67
00:01:00.869,2236.0,-352.0,-18348.0,2103.10
00:01:00.900,2348.0,-440.0,-18440.0,2210.09
00:01:00.932,2240.0,-476.0,-18412.0,2169.87
00:01:00.965,2244.0,-440.0,-18336.0,2094.04
00:01:00.997,2328.0,-460.0,-18380.0,2148.55
00:01:01.029,2232.0,-392.0,-18420.0,2174.88
00:01:01.061,2224.0,-324.0,-18152.0,1906.61
00:01:01.093,2168.0,-440.0,-18476.0,2223.97
00:01:01.125,2400.0,-488.0,-18340.0,2118.80
00:01:01.156,2404.0,-396.0,-18288.0,2065.58
00:01:01.189,2208.0,-480.0,-18304.0,2058.94
00:01:01.220,2284.0,-400.0,-18404.0,2165.50
00:01:01.251,2300.0,-368.0,-18412.0,2174.75
00:01:01.283,2236.0,-348.0,-18420.0,2174.48
00:01:01.316,2264.0,-440.0,-18308.0,2068.70
00:01:01.348,2308.0,-476.0,-18468.0,2233.75
00:01:01.380,2264.0,-372.0,-18256.0,2015.61
00:01:01.413,2400.0,-344.0,-18408.0,2182.98
00:01:01.444,2324.0,-360.0,-18176.0,1943.51
00:01:01.475,2188.0,-380.0,-18336.0,2085.99
00:01:01.507,2316.0,-364.0,-18332.0,2097.30
00:01:01.540,2196.0,-276.0,-18300.0,2049.36
00:01:01.572,2272.0,-312.0,-18412.0,2170.27
00:01:01.603,2228.0,-416.0,-18376.0,2131.25
00:01:01.635,2204.0,-412.0,-18292.0,2044.91
00:01:01.668,2340.0,-432.0,-18328.0,2097.82
00:01:01.700,2248.0,-428.0,-18316.0,2074.40
00:01:01.732,2312.0,-400.0,-18292.0,2057.87
00:01:01.764,2272.0,-372.0,-18272.0,2032.47
00:01:01.796,2212.0,-368.0,-18312.0,2064.79
00:01:01.828,2256.0,-436.0,-18368.0,2127.16
00:01:01.859,2300.0,-432.0,-18476.0,2239.62
00:01:01.892,2224.0,-404.0,-18316.0,2070.95
00:01:01.924,2260.0,-412.0,-18392.0,2150.91
00:01:01.956,2296.0,-388.0,-18428.0,2190.53
00:01:01.989,2368.0,-336.0,-18344.0,2115.26
00:01:02.021,2276.0,-388.0,-18244.0,2005.51
00:01:02.053,2228.0,-480.0,-18372.0,2128.83
00:01:02.084,2308.0,-408.0,-18276.0,2041.68
00:01:02.117,2292.0,-360.0,-18484.0,2245.04
00:01:02.149,2308.0,-388.0,-18304.0,2069.02
00:01:02.180,2204.0,-380.0,-18168.0,1921.14
00:01:02.213,2244.0,-336.0,-18396.0,2151.41
00:01:02.245,2244.0,-244.0,-18304.0,2058.65
00:01:02.277,2296.0,-376.0,-18356.0,2118.86
00:01:02.308,2236.0,-368.0,-18180.0,1936.69
00:01:02.341,2304.0,-440.0,-18360.0,2125.23
00:01:02.373,2256.0,-432.0,-18404.0,2162.79
00:01:02.405,2212.0,-368.0,-18132.0,1886.13
00:01:02.437,2296.0,-368.0,-18288.0,2051.24
00:01:02.470,2272.0,-352.0,-18260.0,2020.17
00:01:02.502,2340.0,-396.0,-18208.0,1978.02
00:01:02.534,2276.0,-340.0,-18296.0,2056.16
00:01:02.567,2248.0,-392.0,-18260.0,2018.03
00:01:02.599,2284.0,-472.0,-18372.0,2135.44
00:01:02.631,2208.0,-404.0,-18324.0,2076.97
00:01:02.664,2224.0,-396.0,-18340.0,2094.60
00:01:02.696,2308.0,-428.0,-18224.0,1990.55
00:01:02.728,2200.0,-396.0,-18404.0,2155.26
00:01:02.760,2120.0,-468.0,-18444.0,2187.34
00:01:02.793,2344.0,-304.0,-18240.0,2008.51
00:01:02.824,2368.0,-392.0,-18248.0,2021.18
00:01:02.855,2144.0,-420.0,-18368.0,2113.47
00:01:02.887,2260.0,-340.0,-18388.0,2145.48
00:01:02.919,2400.0,-272.0,-18320.0,2094.54
00:01:02.951,2296.0,-368.0,-18276.0,2039.33
00:01:02.983,2284.0,-404.0,-18200.0,1963.20
00:01:03.016,2312.0,-380.0,-18392.0,2156.64
00:01:03.048,2200.0,-244.0,-18336.0,2085.12
00:01:03.080,2356.0,-380.0,-18452.0,2221.68
00:01:03.112,2348.0,-372.0,-18340.0,2109.43
00:01:03.146,2296.0,-396.0,-18108.0,1873.28
00:01:03.178,2236.0,-432.0,-18396.0,2152.43
00:01:03.210,2264.0,-436.0,-18388.0,2147.98
00:01:03.243,2280.0,-364.0,-18420.0,2180.14
00:01:03.275,2300.0,-444.0,-18396.0,2160.54
00:01:03.307,2288.0,-424.0,-18364.0,2126.84
00:01:03.340,2264.0,-368.0,-18308.0,2067.12
00:01:03.372,2228.0,-320.0,-18356.0,2109.49
00:01:03.404,2280.0,-360.0,-18368.0,2128.47
00:01:03.436,2240.0,-380.0,-18416.0,2171.62
00:01:03.469,2324.0,-376.0,-18348.0,2114.42
00:01:03.501,2248.0,-360.0,-18288.0,2045.16
00:01:03.533,2236.0,-356.0,-18176.0,1932.48
00:01:03.565,2348.0,-404.0,-18272.0,2042.67
00:01:03.597,2228.0,-344.0,-18316.0,2070.22
00:01:03.629,2212.0,-336.0,-18384.0,2135.65
00:01:03.661,2244.0,-440.0,-18340.0,2098.01
00:01:03.694,2268.0,-356.0,-18244.0,2003.88
00:01:03.725,2232.0,-328.0,-18280.0,2034.68
00:01:03.757,2236.0,-340.0,-18236.0,1991.72
00:01:03.789,2272.0,-416.0,-18208.0,1969.92
00:01:03.822,2268.0,-440.0,-18304.0,2065.22
00:01:03.860,2328.0,-392.0,-18276.0,2043.84
00:01:03.885,2248.0,-504.0,-18396.0,2155.70
00:01:03.918,2268.0,-452.0,-18312.0,2073.45
00:01:03.950,2220.0,-328.0,-18364.0,2116.61
00:01:03.982,2300.0,-332.0,-18284.0,2047.08
00:01:04.015,2248.0,-400.0,-18352.0,2109.50
00:01:04.047,2264.0,-404.0,-18320.0,2079.78
00:01:04.079,2308.0,-252.0,-18192.0,1955.55
00:01:04.111,2272.0,-444.0,-18176.0,1938.83
00:01:04.144,2284.0,-376.0,-18496.0,2256.28
00:01:04.176,2288.0,-384.0,-18316.0,2078.35
00:01:04.208,2224.0,-436.0,-18256.0,2012.14
00:01:04.241,2280.0,-444.0,-18460.0,2221.57
00:01:04.273,2296.0,-432.0,-18440.0,2203.41
00:01:04.305,2252.0,-364.0,-18332.0,2089.39
00:01:04.337,2312.0,-408.0,-18252.0,2018.37
00:01:04.370,2292.0,-364.0,-18356.0,2118.12
00:01:04.402,2252.0,-348.0,-18200.0,1958.10
00:01:04.435,2332.0,-284.0,-18396.0,2161.40
00:01:04.467,2268.0,-424.0,-18184.0,1945.80
00:01:04.499,2324.0,-424.0,-18384.0,2151.16
00:01:04.531,2264.0,-388.0,-18412.0,2170.73
00:01:04.563,2356.0,-384.0,-18328.0,2098.80
00:01:04.596,2328.0,-352.0,-18252.0,2019.23
00:01:04.628,2324.0,-344.0,-18416.0,2181.25
00:01:04.659,2240.0,-328.0,-18436.0,2190.48
00:01:04.692,2332.0,-400.0,-18328.0,2096.09
00:01:04.724,2224.0,-380.0,-18292.0,2046.62
00:01:04.756,2268.0,-408.0,-18384.0,2143.86
00:01:04.788,2144.0,-376.0,-18512.0,2255.53
00:01:04.821,2224.0,-416.0,-18368.0,2122.83
00:01:04.853,2204.0,-396.0,-18184.0,1937.36
00:01:04.885,2268.0,-376.0,-18220.0,1980.47
00:01:04.918,2272.0,-340.0,-18428.0,2186.64
00:01:04.950,2244.0,-416.0,-18356.0,2113.33
00:01:04.982,2260.0,-360.0,-18328.0,2086.32
00:01:05.014,2236.0,-480.0,-18428.0,2185.36
00:01:05.047,2288.0,-288.0,-18296.0,2056.76
00:01:05.079,2312.0,-420.0,-18432.0,2197.18
00:01:05.111,2312.0,-412.0,-18296.0,2062.10
00:01:05.144,2252.0,-356.0,-18356.0,2113.05
00:01:05.176,2340.0,-412.0,-18372.0,2141.00
00:01:05.208,2296.0,-360.0,-18328.0,2090.76
00:01:05.239,2284.0,-376.0,-18364.0,2125.31
00:01:05.272,2304.0,-344.0,-18328.0,2091.45
00:01:05.304,2176.0,-444.0,-18276.0,2026.44
00:01:05.337,2212.0,-436.0,-18348.0,2102.00
00:01:05.370,2312.0,-440.0,-18152.0,1919.94
00:01:05.402,2356.0,-380.0,-18308.0,2078.88
00:01:05.434,2164.0,-464.0,-18388.0,2136.71
00:01:05.466,2232.0,-444.0,-18224.0,1981.54
00:01:05.498,2260.0,-400.0,-18460.0,2218.13
00:01:05.530,2340.0,-380.0,-18456.0,2223.63
00:01:05.562,2340.0,-344.0,-18232.0,2000.77
00:01:05.595,2348.0,-444.0,-18200.0,1972.20
00:01:05.627,2304.0,-360.0,-18340.0,2103.66
00:01:05.659,2300.0,-412.0,-18368.0,2132.02
00:01:05.691,2256.0,-376.0,-18320.0,2078.21
00:01:05.723,2332.0,-440.0,-18392.0,2160.47
00:01:05.755,2248.0,-376.0,-18364.0,2120.90
00:01:05.787,2260.0,-364.0,-18212.0,1971.30
00:01:05.819,2332.0,-464.0,-18248.0,2018.26
00:01:05.851,2208.0,-420.0,-18356.0,2109.09
00:01:05.883,2220.0,-340.0,-18308.0,2061.24
00:01:05.915,2232.0,-368.0,-18424.0,2178.36
00:01:05.948,2188.0,-388.0,-18296.0,2046.45
00:01:05.980,2276.0,-328.0,-18480.0,2238.52
00:01:06.012,2272.0,-460.0,-18344.0,2105.89
00:01:06.045,2316.0,-400.0,-18396.0,2161.53
00:01:06.077,2224.0,-404.0,-18436.0,2190.05
00:01:06.109,2200.0,-348.0,-18464.0,2213.86
00:01:06.140,2312.0,-488.0,-18296.0,2063.96
00:01:06.173,2304.0,-440.0,-18388.0,2153.01
00:01:06.205,2324.0,-368.0,-18380.0,2146.00
00:01:06.237,2256.0,-460.0,-18412.0,2171.40
00:01:06.270,2196.0,-316.0,-18308.0,2057.94
00:01:06.302,2332.0,-348.0,-18456.0,2222.00
00:01:06.334,2344.0,-332.0,-18464.0,2231.15
00:01:06.366,2156.0,-388.0,-18232.0,1979.13
00:01:06.398,2280.0,-456.0,-18460.0,2221.86
00:01:06.429,2184.0,-428.0,-18292.0,2042.89
00:01:06.461,2208.0,-444.0,-18352.0,2105.68
00:01:06.493,2312.0,-376.0,-18312.0,2077.20
00:01:06.526,2212.0,-336.0,-18392.0,2143.59
00:01:06.558,2276.0,-472.0,-18324.0,2086.84
00:01:06.590,2292.0,-392.0,-18236.0,1999.65
00:01:06.622,2260.0,-392.0,-18296.0,2055.22
00:01:06.654,2400.0,-368.0,-18268.0,2044.65
00:01:06.686,2280.0,-444.0,-18216.0,1979.50
00:01:06.718,2224.0,-348.0,-18264.0,2018.20
00:01:06.751,2304.0,-372.0,-18376.0,2139.61
00:01:06.783,2284.0,-420.0,-18340.0,2102.45
00:01:06.815,2316.0,-364.0,-18236.0,2002.08
00:01:06.848,2260.0,-380.0,-18380.0,2138.32
00:01:06.880,2188.0,-380.0,-18420.0,2169.39
00:01:06.912,2296.0,-432.0,-18428.0,2191.51
00:01:06.944,2232.0,-392.0,-18336.0,2091.51
00:01:06.976,2280.0,-344.0,-18280.0,2040.85
00:01:07.008,2260.0,-412.0,-18348.0,2107.25
00:01:07.040,2144.0,-372.0,-18260.0,2005.20
00:01:07.073,2264.0,-384.0,-18392.0,2150.80
00:01:07.105,2192.0,-344.0,-18312.0,2061.94
00:01:07.137,2280.0,-336.0,-18476.0,2235.18
00:01:07.169,2132.0,-368.0,-18320.0,2063.31
00:01:07.202,2336.0,-436.0,-18212.0,1982.38
00:01:07.234,2132.0,-400.0,-18292.0,2036.17
00:01:07.266,2272.0,-388.0,-18380.0,2139.96
00:01:07.299,2248.0,-396.0,-18420.0,2176.89
00:01:07.331,2260.0,-360.0,-18412.0,2169.68
00:01:07.363,2208.0,-496.0,-18368.0,2122.88
00:01:07.395,2236.0,-404.0,-18324.0,2080.34
00:01:07.428,2208.0,-344.0,-18056.0,1809.76
00:01:07.460,2292.0,-360.0,-18320.0,2082.33
00:01:07.492,2200.0,-376.0,-18256.0,2007.93
00:01:07.525,2220.0,-384.0,-18292.0,2046.22
00:01:07.557,2328.0,-376.0,-18200.0,1968.14
00:01:07.589,2300.0,-440.0,-18272.0,2037.44
00:01:07.622,2340.0,-340.0,-18324.0,2091.94
00:01:07.654,2308.0,-384.0,-18300.0,2064.97
00:01:07.686,2244.0,-472.0,-18312.0,2071.02
00:01:07.718,2252.0,-336.0,-18428.0,2184.13
00:01:07.751,2260.0,-352.0,-18412.0,2169.52
00:01:07.783,2348.0,-380.0,-18312.0,2081.83
00:01:07.815,2260.0,-316.0,-18252.0,2010.10
00:01:07.848,2284.0,-404.0,-18396.0,2157.65
00:01:07.880,2216.0,-352.0,-18228.0,1981.58
00:01:07.911,2196.0,-452.0,-18268.0,2021.07
00:01:07.943,2212.0,-440.0,-18308.0,2062.39
00:01:07.976,2276.0,-424.0,-18268.0,2030.12
00:01:08.008,2248.0,-464.0,-18480.0,2238.01
00:01:08.040,2312.0,-404.0,-18360.0,2125.41
00:01:08.073,2252.0,-368.0,-18392.0,2149.01
00:01:08.105,2360.0,-492.0,-18356.0,2129.63
00:01:08.136,2252.0,-336.0,-18296.0,2053.14
00:01:08.168,2300.0,-364.0,-18312.0,2075.46
00:01:08.201,2268.0,-340.0,-18260.0,2019.45
00:01:08.233,2304.0,-420.0,-18376.0,2140.64
00:01:08.265,2284.0,-404.0,-18284.0,2046.53
00:01:08.296,2292.0,-376.0,-18392.0,2154.08
00:01:08.329,2300.0,-284.0,-18524.0,2284.40
00:01:08.360,2288.0,-404.0,-18316.0,2078.77
00:01:08.392,2236.0,-392.0,-18264.0,2020.54
00:01:08.424,2372.0,-420.0,-18228.0,2002.48
00:01:08.456,2244.0,-340.0,-18472.0,2226.91
00:01:08.488,2312.0,-468.0,-18356.0,2122.95
00:01:08.519,2248.0,-372.0,-18272.0,2029.52
00:01:08.552,2268.0,-460.0,-18296.0,2057.77
00:01:08.584,2304.0,-432.0,-18428.0,2192.50
00:01:08.615,2260.0,-444.0,-18316.0,2076.24
00:01:08.647,2284.0,-392.0,-18396.0,2157.39
00:01:08.679,2220.0,-448.0,-18324.0,2079.43
00:01:08.711,2232.0,-412.0,-18288.0,2044.31
00:01:08.742,2196.0,-396.0,-18212.0,1964.19
00:01:08.774,2288.0,-364.0,-18420.0,2181.12
00:01:08.806,2308.0,-392.0,-18308.0,2073.07
00:01:08.838,2232.0,-380.0,-18344.0,2099.20
00:01:08.870,2268.0,-256.0,-18224.0,1982.37
00:01:08.903,2388.0,-372.0,-18292.0,2066.97
00:01:08.935,2204.0,-332.0,-18292.0,2043.29
00:01:08.967,3880.0,-528.0,-20892.0,4871.80
00:01:08.999,2216.0,-432.0,-18548.0,2300.90
00:01:09.032,2208.0,-496.0,-18176.0,1932.34
00:01:09.064,2280.0,-400.0,-18300.0,2061.82
00:01:09.096,2224.0,-360.0,-18260.0,2014.46
00:01:09.129,2264.0,-464.0,-18204.0,1966.11
00:01:09.163,2172.0,-408.0,-18516.0,2263.42
00:01:09.194,2264.0,-536.0,-18060.0,1825.24
00:01:09.228,2172.0,-308.0,-18416.0,2162.20
00:01:09.260,2284.0,-340.0,-18076.0,1838.90
00:01:09.293,2308.0,-396.0,-18016.0,1783.55
00:01:09.326,2160.0,-312.0,-18340.0,2085.39
00:01:09.360,2248.0,-392.0,-18484.0,2240.32
00:01:09.392,2340.0,-352.0,-18356.0,2123.90
00:01:09.425,2508.0,-428.0,-18172.0,1965.25
00:01:09.458,2348.0,-332.0,-18100.0,1870.68
00:01:09.489,2272.0,-456.0,-18556.0,2316.14
00:01:09.521,1136.0,-320.0,-15752.0,587.85
00:01:09.554,2304.0,-444.0,-18608.0,2371.35
00:01:09.586,2232.0,-400.0,-17928.0,1686.83
00:01:09.616,2728.0,-340.0,-18480.0,2299.36
00:01:09.649,2144.0,-360.0,-15148.0,1080.79
00:01:09.683,2344.0,-396.0,-18096.0,1867.48
00:01:09.715,2340.0,-352.0,-18548.0,2314.34
00:01:09.748,2264.0,-140.0,-18192.0,1948.87
00:01:09.778,1920.0,276.0,-16936.0,662.72
00:01:09.808,2144.0,-24.0,-18664.0,2402.76
00:01:09.840,2424.0,-384.0,-19240.0,3011.90
00:01:09.870,2452.0,-352.0,-19200.0,2975.14
00:01:09.901,2444.0,-332.0,-18684.0,2462.09
00:01:09.933,2368.0,-376.0,-18476.0,2246.93
00:01:09.965,2276.0,-384.0,-18416.0,2176.08
00:01:09.996,2188.0,-524.0,-18164.0,1918.81
00:01:10.029,2252.0,-456.0,-18500.0,2258.14
00:01:10.061,2168.0,-292.0,-18400.0,2145.58
00:01:10.093,2204.0,-324.0,-18488.0,2237.73
00:01:10.126,2224.0,-216.0,-18400.0,2151.18
00:01:10.158,2200.0,-360.0,-18420.0,2170.41
00:01:10.190,2200.0,-320.0,-18352.0,2102.17
00:01:10.222,2252.0,-384.0,-18300.0,2058.04
00:01:10.254,2256.0,-348.0,-18324.0,2081.63
00:01:10.285,2276.0,-356.0,-18336.0,2096.15
00:01:10.316,2268.0,-484.0,-18268.0,2030.61
00:01:10.348,2264.0,-420.0,-18372.0,2131.74
00:01:10.380,2268.0,-396.0,-18244.0,2004.70
00:01:10.412,2260.0,-432.0,-18356.0,2115.65
00:01:10.444,2252.0,-448.0,-18448.0,2206.34
00:01:10.476,2276.0,-396.0,-18392.0,2152.52
00:01:10.508,2200.0,-528.0,-18280.0,2035.48
00:01:10.539,2316.0,-436.0,-18380.0,2146.47
00:01:10.571,2400.0,-344.0,-18280.0,2056.09
00:01:10.603,2252.0,-356.0,-18344.0,2101.14
00:01:10.634,2340.0,-392.0,-18376.0,2144.54
00:01:10.666,2316.0,-476.0,-18348.0,2115.72
00:01:10.702,-3884.0,-1152.0,-18636.0,2687.26
00:01:10.731,2656.0,-288.0,-20080.0,3872.94
00:01:10.762,2380.0,-312.0,-18476.0,2247.27
00:01:10.794,2332.0,-284.0,-18396.0,2161.40
00:01:10.825,2324.0,-480.0,-18208.0,1977.99
00:01:10.857,2184.0,-332.0,-18444.0,2191.82
00:01:10.890,2192.0,-408.0,-18308.0,2059.27
00:01:10.922,2360.0,-428.0,-18404.0,2175.63
00:01:10.955,2048.0,-576.0,-18444.0,2182.29
00:01:10.985,2116.0,-404.0,-18292.0,2034.41
00:01:11.018,2740.0,-272.0,-19116.0,2929.29
00:01:11.051,2280.0,-356.0,-19532.0,3283.85
00:01:11.082,1764.0,-316.0,-16464.0,177.25
00:01:11.112,2948.0,-508.0,-18724.0,2577.46
00:01:11.143,2584.0,-600.0,-19196.0,2994.43
00:01:11.175,2832.0,-1112.0,-17328.0,1209.08
00:01:11.208,940.0,-428.0,-17484.0,1130.48
00:01:11.239,2984.0,-4396.0,-21244.0,5514.32
00:01:11.271,1604.0,-412.0,-15764.0,533.25
00:01:11.304,2272.0,-436.0,-17752.0,1518.11
00:01:11.335,2468.0,-656.0,-18376.0,2168.59
00:01:11.367,2240.0,-204.0,-18844.0,2593.76
00:01:11.397,2396.0,-424.0,-17892.0,1672.70
00:01:11.430,2240.0,-408.0,-18140.0,1898.33
00:01:11.462,2556.0,-1196.0,-15724.0,408.78
00:01:11.493,1880.0,-480.0,-17124.0,849.58
00:01:11.525,2476.0,-480.0,-18456.0,2243.53
00:01:11.557,2292.0,-380.0,-18408.0,2170.03
00:01:11.589,2260.0,-372.0,-18136.0,1896.06
00:01:11.621,2248.0,-404.0,-18380.0,2137.37
00:01:11.653,2252.0,-456.0,-18388.0,2147.00
00:01:11.685,2288.0,-404.0,-18336.0,2098.61
00:01:11.717,2368.0,-320.0,-18324.0,2095.15
00:01:11.749,2252.0,-364.0,-18372.0,2129.09
00:01:11.781,2296.0,-384.0,-18456.0,2218.23
00:01:11.813,2324.0,-316.0,-18220.0,1986.34
00:01:11.845,2216.0,-420.0,-18196.0,1951.25
00:01:11.878,2312.0,-392.0,-18420.0,2184.67
00:01:11.909,2268.0,-344.0,-18312.0,2071.12
00:01:11.941,2300.0,-352.0,-18244.0,2007.78
00:01:11.973,2264.0,-396.0,-18296.0,2055.80
00:01:12.005,2276.0,-404.0,-18296.0,2057.45
00:01:12.041,3088.0,1724.0,-20776.0,4690.87
00:01:12.071,1884.0,-384.0,-18184.0,1901.37
00:01:12.100,2376.0,-488.0,-18148.0,1925.38
00:01:12.132,2372.0,-348.0,-18508.0,2278.62
00:01:12.163,2720.0,-288.0,-17984.0,1806.81
00:01:12.195,1880.0,-724.0,-16328.0,67.81
00:01:12.227,3028.0,1912.0,-24892.0,8764.28
00:01:12.259,1456.0,-908.0,-17548.0,1247.70
00:01:12.291,2516.0,-468.0,-17928.0,1725.73
00:01:12.323,2448.0,-636.0,-18184.0,1975.06
00:01:12.356,2224.0,-160.0,-17584.0,1340.81
00:01:12.386,2624.0,732.0,-19340.0,3146.92
00:01:12.417,2100.0,-564.0,-15576.0,656.96
00:01:12.448,3000.0,-556.0,-19328.0,3183.34
00:01:12.479,2452.0,-784.0,-13416.0,2723.25
00:01:12.512,3264.0,-436.0,-21956.0,5817.57
00:01:12.543,2228.0,-368.0,-17092.0,856.53
00:01:12.575,2228.0,-576.0,-17636.0,1401.51
00:01:12.608,2168.0,-420.0,-18180.0,1929.63
00:01:12.640,2192.0,-364.0,-18368.0,2117.91
00:01:12.672,2244.0,-552.0,-17524.0,1291.71
00:01:12.705,2292.0,-348.0,-18092.0,1855.92
00:01:12.737,2196.0,-372.0,-18332.0,2082.81
00:01:12.768,2132.0,-356.0,-18236.0,1979.66
00:01:12.799,2252.0,-276.0,-18376.0,2131.54
00:01:12.832,2348.0,-384.0,-18144.0,1915.33
00:01:12.864,2260.0,-376.0,-18344.0,2102.52
00:01:12.895,2212.0,-464.0,-18296.0,2051.07
00:01:12.928,2268.0,-380.0,-18352.0,2111.52
00:01:12.959,2280.0,-420.0,-18428.0,2189.26
00:01:12.991,2268.0,-332.0,-18320.0,2078.84
00:01:13.023,2208.0,-380.0,-18340.0,2092.34
00:01:13.055,2224.0,-396.0,-18244.0,1999.32
00:01:13.086,2148.0,-492.0,-18288.0,2036.29
00:01:13.118,2296.0,-376.0,-18316.0,2079.18
00:01:13.150,2244.0,-388.0,-18192.0,1949.98
00:01:13.187,5660.0,-888.0,-21632.0,5993.84
00:01:13.219,2196.0,-460.0,-17532.0,1290.98
00:01:13.251,2332.0,-424.0,-18036.0,1807.08
00:01:13.285,2200.0,-424.0,-18204.0,1957.36
00:01:13.319,2244.0,-344.0,-18600.0,2354.03
00:01:13.352,2252.0,-352.0,-18504.0,2259.86
00:01:13.387,2300.0,-300.0,-18584.0,2344.19
00:01:13.417,2348.0,-420.0,-18396.0,2166.00
00:01:13.450,2308.0,-308.0,-18288.0,2051.64
00:01:13.483,2388.0,-584.0,-18000.0,1783.10
00:01:13.515,2184.0,-504.0,-18680.0,2429.99
00:01:13.546,2228.0,-524.0,-17720.0,1483.20
00:01:13.580,2172.0,-456.0,-19140.0,2884.24
00:01:13.615,2532.0,-228.0,-19924.0,3701.54
00:01:13.645,1968.0,-588.0,-17312.0,1049.42
00:01:13.676,2388.0,-372.0,-18924.0,2693.70
00:01:13.710,2448.0,-732.0,-18664.0,2454.08
00:01:13.743,840.0,-1020.0,-19432.0,3092.87
00:01:13.777,4888.0,12.0,-26912.0,10968.30
00:01:13.809,3084.0,28.0,-20888.0,4730.46
00:01:13.840,2284.0,-292.0,-19028.0,2782.81
00:01:13.872,3100.0,-664.0,-18996.0,2874.74
00:01:13.904,2268.0,-404.0,-18620.0,2377.97
00:01:13.936,2308.0,-376.0,-18308.0,2072.74
00:01:13.968,2344.0,-532.0,-18340.0,2112.84
00:01:14.000,2228.0,-488.0,-18328.0,2085.37
00:01:14.033,2220.0,-424.0,-18320.0,2074.89
00:01:14.065,2308.0,-404.0,-18268.0,2033.65
00:01:14.096,2188.0,-496.0,-18380.0,2132.42
00:01:14.127,2168.0,-432.0,-18376.0,2124.49
00:01:14.160,2224.0,-428.0,-18488.0,2242.20
00:01:14.191,2200.0,-268.0,-18356.0,2105.31
00:01:14.223,2280.0,-316.0,-18316.0,2076.07
00:01:14.255,2240.0,-224.0,-18424.0,2177.02
00:01:14.287,2232.0,-392.0,-18296.0,2051.81
00:01:14.319,2264.0,-408.0,-18384.0,2143.37
00:01:14.351,2308.0,-340.0,-18236.0,2000.62
00:01:14.384,2336.0,-424.0,-18364.0,2132.83
00:01:14.416,2328.0,-420.0,-18308.0,2076.20
00:01:14.452,-3736.0,-1244.0,-26080.0,9991.59
00:01:14.484,2812.0,-544.0,-17188.0,1041.00
00:01:14.517,1900.0,-228.0,-18104.0,1820.86
00:01:14.547,2084.0,-436.0,-17672.0,1415.80
00:01:14.579,2436.0,-256.0,-18720.0,2495.57
00:01:14.611,2444.0,-560.0,-18032.0,1821.49
00:01:14.645,2336.0,-1452.0,-15824.0,322.74
00:01:14.678,2120.0,-732.0,-18232.0,1985.43
00:01:14.711,4624.0,44.0,-17844.0,2049.44
00:01:14.743,3796.0,-8.0,-16308.0,359.97
00:01:14.775,1456.0,-1020.0,-18592.0,2292.80
00:01:14.806,2180.0,-764.0,-16448.0,225.42
00:01:14.838,2484.0,-136.0,-19088.0,2865.43
00:01:14.870,2360.0,-1408.0,-17048.0,884.07
00:01:14.904,1984.0,-1004.0,-20684.0,4419.18
00:01:14.935,136.0,-1072.0,-14488.0,1855.76
00:01:14.968,1860.0,-876.0,-15348.0,898.91
00:01:14.998,2328.0,-716.0,-16704.0,496.64
00:01:15.029,2372.0,-348.0,-17932.0,1707.55
00:01:15.062,2268.0,-244.0,-18296.0,2053.65
00:01:15.093,2360.0,-296.0,-18364.0,2133.39
00:01:15.124,2352.0,-300.0,-18448.0,2215.75
00:01:15.155,2180.0,-336.0,-18428.0,2175.54
00:01:15.188,2180.0,-308.0,-18288.0,2036.05
00:01:15.219,2216.0,-356.0,-18148.0,1902.26
00:01:15.250,2208.0,-360.0,-18284.0,2036.36
00:01:15.282,2156.0,-364.0,-18320.0,2066.02
00:01:15.315,2368.0,-416.0,-18320.0,2093.09
00:01:15.347,2292.0,-400.0,-18124.0,1888.73
00:01:15.379,2232.0,-404.0,-18284.0,2040.16
00:01:15.412,2348.0,-312.0,-18344.0,2112.29
00:01:15.444,2260.0,-420.0,-18308.0,2067.74
00:01:15.475,2312.0,-360.0,-18340.0,2104.66
00:01:15.507,2192.0,-320.0,-18340.0,2089.30
00:01:15.539,2296.0,-396.0,-18416.0,2178.80
00:01:15.571,2164.0,-396.0,-18344.0,2091.44
00:01:15.603,2224.0,-272.0,-18312.0,2064.56
00:01:15.635,2144.0,-364.0,-18264.0,2009.01
00:01:15.668,3732.0,-3896.0,-15268.0,190.84
00:01:15.699,968.0,396.0,-23160.0,6799.60
00:01:15.729,2196.0,156.0,-19664.0,3402.86
00:01:15.762,2336.0,-360.0,-18292.0,2060.07
00:01:15.793,2232.0,-540.0,-18520.0,2277.83
00:01:15.823,1824.0,-192.0,-18184.0,1892.26
00:01:15.854,2560.0,-436.0,-18832.0,2626.21
00:01:15.886,1812.0,-1000.0,-16696.0,439.79
00:01:15.919,2888.0,-668.0,-18372.0,2225.60
00:01:15.952,-392.0,-288.0,-16268.0,108.73
00:01:15.986,1816.0,-132.0,-15932.0,348.29
00:01:16.019,3392.0,-1148.0,-16392.0,394.59
00:01:16.053,1884.0,-160.0,-19924.0,3629.52
00:01:16.089,2608.0,-1196.0,-21528.0,5334.35
00:01:16.121,3844.0,-312.0,-15792.0,127.90
00:01:16.153,660.0,-496.0,-19984.0,3617.05
00:01:16.186,7116.0,1724.0,-24020.0,8727.15
00:01:16.218,2016.0,-448.0,-18972.0,2700.07
00:01:16.248,2260.0,-412.0,-17892.0,1654.87
00:01:16.281,2352.0,-248.0,-18736.0,2500.68
00:01:16.314,2476.0,-132.0,-18224.0,2007.91
00:01:16.346,2432.0,-420.0,-17912.0,1697.23
00:01:16.377,2316.0,-356.0,-18348.0,2113.02
00:01:16.411,2384.0,-296.0,-18760.0,2529.19
00:01:16.443,2236.0,-252.0,-18396.0,2149.11
00:01:16.475,2188.0,-340.0,-18428.0,2176.55
00:01:16.508,2276.0,-288.0,-18368.0,2126.71
00:01:16.540,2340.0,-324.0,-18396.0,2163.06
00:01:16.572,2260.0,-296.0,-18332.0,2089.15
00:01:16.603,2344.0,-372.0,-18308.0,2077.19
00:01:16.635,2280.0,-368.0,-18284.0,2045.28
00:01:16.667,2412.0,-360.0,-18216.0,1994.52
00:01:16.699,2240.0,-388.0,-18372.0,2128.12
00:01:16.731,2240.0,-404.0,-18380.0,2136.40
00:01:16.763,2376.0,-256.0,-18292.0,2063.44
00:01:16.795,2264.0,-460.0,-18344.0,2104.91
00:01:16.847,2316.0,-484.0,-18404.0,2171.47
00:01:16.859,2252.0,-548.0,-18424.0,2185.21
00:01:16.892,2296.0,-416.0,-18284.0,2048.29
00:01:16.924,2284.0,-384.0,-18284.0,2046.10
00:01:16.956,2260.0,-412.0,-18428.0,2186.64
00:01:16.988,2272.0,-444.0,-18272.0,2034.06
00:01:17.019,2200.0,-420.0,-18212.0,1965.21
00:01:17.051,2272.0,-340.0,-18372.0,2131.07
00:01:17.082,2304.0,-288.0,-18400.0,2161.93
00:01:17.114,2308.0,-324.0,-18280.0,2043.97
00:01:17.146,2204.0,-432.0,-18368.0,2120.80
00:01:17.178,2224.0,-384.0,-18332.0,2086.40
00:01:17.206,2356.0,40.0,-18508.0,2273.40
00:01:17.237,2188.0,-388.0,-18360.0,2109.99
00:01:17.269,2244.0,-396.0,-18424.0,2180.38
00:01:17.301,2340.0,-364.0,-18680.0,2445.51
00:01:17.333,2352.0,-352.0,-18948.0,2712.66
00:01:17.365,2116.0,-624.0,-18124.0,1873.77
00:01:17.396,2492.0,-524.0,-18156.0,1949.71
00:01:17.428,2700.0,-236.0,-18736.0,2547.02
00:01:17.461,2504.0,-472.0,-18656.0,2445.21
00:01:17.494,1896.0,540.0,-22276.0,5979.06
00:01:17.525,160.0,-1112.0,-14136.0,2203.43
00:01:17.556,1148.0,-132.0,-17628.0,1281.83
00:01:17.586,348.0,-260.0,-19260.0,2880.90
00:01:17.618,1828.0,-876.0,-17540.0,1272.74
00:01:17.649,2120.0,-428.0,-18964.0,2702.93
00:01:17.681,3216.0,-904.0,-17816.0,1742.49
00:01:17.714,232.0,-2136.0,-20836.0,4562.48
00:01:17.749,6104.0,-1768.0,-13708.0,1274.60
00:01:17.783,2748.0,-2688.0,-20292.0,4268.90
00:01:17.816,2952.0,-760.0,-17444.0,1324.33
00:01:17.847,2312.0,-572.0,-18284.0,2054.47
00:01:17.879,2432.0,-352.0,-18728.0,2504.53
00:01:17.911,2284.0,-380.0,-18280.0,2042.05
00:01:17.942,2252.0,-384.0,-18280.0,2038.20
00:01:17.974,2256.0,-396.0,-18300.0,2058.79
00:01:18.006,2352.0,-448.0,-18272.0,2044.20
00:01:18.038,2232.0,-284.0,-18392.0,2145.12
00:01:18.070,2320.0,-396.0,-18248.0,2015.15
00:01:18.102,2360.0,-404.0,-18244.0,2016.44
00:01:18.134,2256.0,-376.0,-18328.0,2086.15
00:01:18.166,2236.0,-332.0,-18392.0,2146.40
00:01:18.198,2368.0,-316.0,-18208.0,1980.06
00:01:18.230,2280.0,-344.0,-18388.0,2148.01
00:01:18.262,2336.0,-440.0,-18316.0,2085.61
00:01:18.294,2280.0,-396.0,-18404.0,2164.92
00:01:18.326,2268.0,-312.0,-18304.0,2062.61
00:01:18.358,2240.0,-372.0,-18276.0,2032.52
00:01:18.391,2348.0,-508.0,-18280.0,2053.18
00:01:18.423,2172.0,-360.0,-18416.0,2163.14
00:01:18.455,2244.0,-360.0,-18232.0,1989.10
00:01:18.487,2232.0,-316.0,-18292.0,2046.38
00:01:18.522,568.0,-1240.0,-19136.0,2800.54
00:01:18.556,2100.0,-1068.0,-16860.0,639.81
00:01:18.588,2144.0,-472.0,-17736.0,1487.35
00:01:18.621,2316.0,-420.0,-18260.0,2027.08
00:01:18.653,2248.0,-404.0,-18304.0,2061.95
00:01:18.684,2212.0,-464.0,-18540.0,2293.25
00:01:18.718,2512.0,-320.0,-17496.0,1294.31
00:01:18.752,1372.0,1188.0,-23424.0,7110.20
00:01:18.782,236.0,-756.0,-15392.0,971.64
00:01:18.814,2224.0,-212.0,-18224.0,1976.43
00:01:18.848,5184.0,-956.0,-16380.0,823.33
00:01:18.880,3128.0,484.0,-20696.0,4552.64
00:01:18.913,2232.0,-264.0,-18276.0,2029.68
00:01:18.948,2736.0,-792.0,-16820.0,675.47
00:01:18.981,2036.0,-936.0,-16956.0,719.43
00:01:19.010,76.0,1712.0,-16792.0,495.22
00:01:19.041,2168.0,-400.0,-17652.0,1405.14
00:01:19.074,2048.0,-348.0,-18932.0,2661.63
00:01:19.106,2164.0,-368.0,-18312.0,2059.09
00:01:19.138,2204.0,-308.0,-18348.0,2098.47
00:01:19.171,2292.0,-476.0,-18280.0,2045.28
00:01:19.203,2216.0,-412.0,-18220.0,1974.89
00:01:19.235,2212.0,-428.0,-18364.0,2117.69
00:01:19.268,2224.0,-308.0,-18312.0,2065.13
00:01:19.299,2252.0,-388.0,-18280.0,2038.28
00:01:19.331,2264.0,-392.0,-18404.0,2162.88
00:01:19.364,2260.0,-492.0,-18244.0,2006.03
00:01:19.395,2240.0,-404.0,-18320.0,2076.86
00:01:19.427,2248.0,-392.0,-18288.0,2045.82
00:01:19.459,2280.0,-352.0,-18284.0,2044.97
00:01:19.492,2200.0,-404.0,-18336.0,2087.93
00:01:19.523,2344.0,-304.0,-18212.0,1980.74
00:01:19.554,2284.0,-360.0,-18200.0,1962.29
00:01:19.586,2284.0,-368.0,-18268.0,2029.91
00:01:19.619,2364.0,-352.0,-18304.0,2075.38
00:01:19.651,2268.0,-316.0,-18308.0,2066.65
00:01:19.683,2176.0,-364.0,-18300.0,2048.51
00:01:19.716,2244.0,-360.0,-18356.0,2112.16
00:01:19.747,2252.0,-452.0,-18284.0,2043.71
00:01:19.779,2300.0,-360.0,-18232.0,1996.03
00:01:19.811,2224.0,-460.0,-18260.0,2016.69
00:01:19.844,2312.0,-412.0,-18400.0,2165.26
00:01:19.876,2304.0,-356.0,-18340.0,2103.58
00:01:19.908,2180.0,-344.0,-18388.0,2135.97
00:01:19.940,2128.0,-344.0,-18248.0,1990.88
00:01:19.972,2296.0,-356.0,-18476.0,2237.52
00:01:20.004,2256.0,-384.0,-18204.0,1963.28
00:01:20.036,2240.0,-388.0,-18276.0,2032.85
00:01:20.068,2264.0,-368.0,-18340.0,2098.88
00:01:20.100,2240.0,-384.0,-18356.0,2112.16
00:01:20.132,2240.0,-348.0,-18332.0,2087.62
00:01:20.164,2236.0,-416.0,-18440.0,2195.73
00:01:20.196,2248.0,-372.0,-18464.0,2220.06
00:01:20.227,2208.0,-416.0,-18320.0,2073.27
00:01:20.259,2456.0,-324.0,-18468.0,2249.41
00:01:20.291,2288.0,-312.0,-18308.0,2069.05
00:01:20.323,2256.0,-400.0,-18212.0,1971.56
00:01:20.355,2236.0,-392.0,-18384.0,2139.63
00:01:20.386,2264.0,-416.0,-18308.0,2068.14
00:01:20.418,2260.0,-428.0,-18396.0,2155.24
00:01:20.450,2384.0,-428.0,-18400.0,2174.73
00:01:20.482,2292.0,-380.0,-18324.0,2086.70
00:01:20.514,2200.0,-476.0,-18416.0,2169.05
00:01:20.546,2240.0,-296.0,-18284.0,2039.08
00:01:20.578,2380.0,-340.0,-18348.0,2120.84
00:01:20.610,2344.0,-388.0,-18340.0,2109.25
00:01:20.642,2224.0,-452.0,-18248.0,2004.58
00:01:20.674,2212.0,-356.0,-18300.0,2052.64
00:01:20.706,2320.0,-364.0,-18464.0,2228.74
00:01:20.737,2280.0,-424.0,-18356.0,2117.92
00:01:20.770,2276.0,-316.0,-18144.0,1904.92
00:01:20.801,2216.0,-340.0,-18428.0,2179.87
00:01:20.833,2136.0,-424.0,-18312.0,2057.03
00:01:20.866,2392.0,-332.0,-18324.0,2098.45
00:01:20.898,2340.0,-388.0,-18460.0,2227.76
00:01:20.929,2384.0,-344.0,-18260.0,2034.18
00:01:20.961,2324.0,-384.0,-18500.0,2265.35
00:01:20.993,2224.0,-436.0,-18340.0,2095.50
00:01:21.025,2284.0,-384.0,-18324.0,2085.79
00:01:21.056,2288.0,-416.0,-18256.0,2019.52
00:01:21.088,2260.0,-380.0,-18312.0,2070.85
00:01:21.121,2276.0,-436.0,-18388.0,2149.45
00:01:21.152,2280.0,-348.0,-18356.0,2116.33
00:01:21.183,2164.0,-416.0,-18292.0,2040.26
00:01:21.215,2268.0,-448.0,-18364.0,2124.94
00:01:21.248,2176.0,-368.0,-18212.0,1961.23
00:01:21.279,2268.0,-292.0,-18400.0,2157.55
00:01:21.311,2232.0,-372.0,-18328.0,2083.15
00:01:21.344,2244.0,-328.0,-18420.0,2175.08
00:01:21.376,2336.0,-428.0,-18500.0,2267.81
00:01:21.408,2256.0,-352.0,-18352.0,2109.49
00:01:21.439,2248.0,-472.0,-18304.0,2063.57
00:01:21.471,2284.0,-396.0,-18144.0,1907.48
00:01:21.503,2260.0,-420.0,-18276.0,2035.99
00:01:21.535,2284.0,-292.0,-18284.0,2044.42
00:01:21.568,2292.0,-420.0,-18276.0,2039.95
00:01:21.600,2284.0,-460.0,-18344.0,2107.37
00:01:21.631,2176.0,-312.0,-18236.0,1984.02
00:01:21.662,2264.0,-340.0,-18408.0,2165.82
00:01:21.695,2196.0,-480.0,-18312.0,2065.45
00:01:21.727,2304.0,-332.0,-18300.0,2063.46
00:01:21.758,2228.0,-256.0,-18408.0,2160.11
00:01:21.790,2292.0,-372.0,-18312.0,2074.63
00:01:21.822,2296.0,-336.0,-18200.0,1963.33
00:01:21.854,2236.0,-420.0,-18412.0,2168.03
00:01:21.886,2424.0,-372.0,-18304.0,2083.55
00:01:21.917,2160.0,-396.0,-18408.0,2154.52
00:01:21.950,2268.0,-436.0,-18528.0,2287.39
00:01:21.982,2332.0,-352.0,-18456.0,2222.08
00:01:22.014,2300.0,-392.0,-18368.0,2131.59
00:01:22.047,2268.0,-420.0,-18264.0,2025.07
00:01:22.079,2332.0,-464.0,-18336.0,2105.52
00:01:22.111,2180.0,-348.0,-18348.0,2096.33
00:01:22.143,2224.0,-432.0,-18264.0,2019.98
00:01:22.176,2280.0,-384.0,-18300.0,2061.48
00:01:22.208,2244.0,-392.0,-18324.0,2081.05
00:01:22.239,2276.0,-388.0,-18420.0,2180.14
00:01:22.272,2336.0,-368.0,-18364.0,2131.64
00:01:22.304,2320.0,-444.0,-18340.0,2107.49
00:01:22.335,2276.0,-332.0,-18328.0,2087.76
00:01:22.367,2268.0,-360.0,-18360.0,2119.05
00:01:22.400,2280.0,-468.0,-18120.0,1884.88
00:01:22.432,2284.0,-392.0,-18312.0,2074.05
00:01:22.464,2260.0,-384.0,-18256.0,2015.36
00:01:22.497,2312.0,-404.0,-18328.0,2093.67
00:01:22.529,2268.0,-328.0,-18396.0,2154.18
00:01:22.561,2248.0,-440.0,-18448.0,2205.67
00:01:22.593,2288.0,-312.0,-18340.0,2100.80
00:01:22.626,2188.0,-464.0,-18280.0,2032.33
00:01:22.658,2268.0,-372.0,-18416.0,2174.86
00:01:22.690,2252.0,-396.0,-18172.0,1931.29
00:01:22.723,2244.0,-404.0,-18396.0,2152.76
00:01:22.754,2192.0,-336.0,-18364.0,2113.41
00:01:22.786,2252.0,-276.0,-18332.0,2087.87
00:01:22.818,2320.0,-404.0,-18244.0,2011.36
00:01:22.851,2232.0,-444.0,-18416.0,2172.08
00:01:22.884,2124.0,-304.0,-18288.0,2029.44
00:01:22.916,2380.0,-400.0,-18488.0,2260.85
00:01:22.948,2324.0,-404.0,-18292.0,2059.47
00:01:22.980,2324.0,-404.0,-18180.0,1948.39
00:01:23.011,2168.0,-432.0,-18212.0,1961.68
00:01:23.043,2252.0,-460.0,-18244.0,2004.22
00:01:23.076,2332.0,-312.0,-18264.0,2030.92
00:01:23.107,2260.0,-368.0,-18396.0,2153.96
00:01:23.138,2284.0,-420.0,-18144.0,1908.01
00:01:23.171,2264.0,-384.0,-18384.0,2142.86
00:01:23.203,2300.0,-432.0,-18396.0,2160.26
00:01:23.235,2268.0,-368.0,-18392.0,2150.96
00:01:23.268,2284.0,-320.0,-18376.0,2136.16
00:01:23.300,2240.0,-416.0,-18356.0,2112.85
00:01:23.332,2316.0,-412.0,-18456.0,2221.31
00:01:23.365,2260.0,-376.0,-18328.0,2086.64
00:01:23.397,2268.0,-428.0,-18248.0,2009.38
00:01:23.429,2264.0,-472.0,-18484.0,2244.12
00:01:23.461,2144.0,-324.0,-18352.0,2095.65
00:01:23.493,2208.0,-468.0,-18328.0,2082.45
00:01:23.524,2328.0,-400.0,-18256.0,2024.18
00:01:23.555,2304.0,-380.0,-18332.0,2096.13
00:01:23.586,2324.0,-388.0,-18204.0,1971.85
00:01:23.618,2208.0,-360.0,-18272.0,2024.45
00:01:23.651,2248.0,-340.0,-18300.0,2056.69
00:01:23.683,2248.0,-428.0,-18304.0,2062.49
00:01:23.715,2264.0,-440.0,-18208.0,1969.49
00:01:23.747,2252.0,-380.0,-18432.0,2188.95
00:01:23.778,2280.0,-376.0,-18436.0,2196.25
00:01:23.810,2260.0,-368.0,-18400.0,2157.93
00:01:23.843,2280.0,-332.0,-18316.0,2076.35
00:01:23.874,2272.0,-436.0,-18352.0,2113.24
00:01:23.906,2184.0,-364.0,-18356.0,2105.05
00:01:23.938,2228.0,-412.0,-18460.0,2214.53
00:01:23.971,2292.0,-356.0,-18320.0,2082.25
00:01:24.002,2180.0,-316.0,-18308.0,2056.04
00:01:24.034,2292.0,-340.0,-18276.0,2038.30
00:01:24.067,2236.0,-372.0,-18408.0,2163.04
00:01:24.099,2328.0,-392.0,-18356.0,2123.19
00:01:24.131,2280.0,-272.0,-18320.0,2079.34
00:01:24.163,2304.0,-404.0,-18260.0,2025.22
00:01:24.196,2292.0,-384.0,-18348.0,2110.59
00:01:24.227,2252.0,-404.0,-18532.0,2288.70
00:01:24.258,2204.0,-232.0,-18352.0,2101.33
00:01:24.290,2224.0,-384.0,-18268.0,2022.89
00:01:24.323,2344.0,-432.0,-18296.0,2066.60
00:01:24.354,2220.0,-368.0,-18384.0,2137.21
00:01:24.386,2276.0,-468.0,-18236.0,1999.44
00:01:24.419,2284.0,-328.0,-18372.0,2132.33
00:01:24.451,2224.0,-380.0,-18312.0,2066.47
00:01:24.483,2220.0,-352.0,-18284.0,2037.64
00:01:24.515,2208.0,-416.0,-18276.0,2029.60
00:01:24.548,2272.0,-492.0,-18260.0,2023.38
00:01:24.579,2236.0,-480.0,-18276.0,2034.53
00:01:24.611,2252.0,-360.0,-18380.0,2136.95
00:01:24.642,2152.0,-352.0,-18292.0,2037.52
00:01:24.675,2316.0,-336.0,-18364.0,2128.52
00:01:24.707,2224.0,-408.0,-18368.0,2122.65
00:01:24.739,2280.0,-308.0,-18416.0,2175.16
00:01:24.770,2244.0,-396.0,-18176.0,1934.28
00:01:24.803,2304.0,-380.0,-18284.0,2048.51
00:01:24.835,2212.0,-432.0,-18424.0,2177.34
00:01:24.867,2332.0,-428.0,-18292.0,2061.02
00:01:24.898,2280.0,-384.0,-18256.0,2017.83
00:01:24.931,2268.0,-400.0,-18276.0,2036.53
00:01:24.963,2236.0,-424.0,-18332.0,2088.73
00:01:24.995,2300.0,-420.0,-18256.0,2021.11
00:01:25.028,2304.0,-412.0,-18376.0,2140.46
00:01:25.060,2224.0,-360.0,-18236.0,1990.64
00:01:25.092,2296.0,-440.0,-18244.0,2009.17
00:01:25.124,2236.0,-316.0,-18444.0,2197.73
00:01:25.157,2324.0,-380.0,-18340.0,2106.56
00:01:25.189,2280.0,-404.0,-18432.0,2192.87
00:01:25.221,2236.0,-412.0,-18340.0,2096.40
00:01:25.253,2196.0,-408.0,-18424.0,2174.90
00:01:25.284,2256.0,-304.0,-18340.0,2096.73
00:01:25.315,2312.0,-360.0,-18416.0,2180.05
00:01:25.348,2232.0,-524.0,-18192.0,1951.90
00:01:25.380,2272.0,-460.0,-18312.0,2074.14
00:01:25.411,2304.0,-376.0,-18348.0,2111.92
00:01:25.442,2360.0,-440.0,-18196.0,1969.68
00:01:25.475,2288.0,-360.0,-18336.0,2097.71
00:01:25.506,2236.0,-380.0,-18232.0,1988.53
00:01:25.539,2292.0,-324.0,-18460.0,2220.57
00:01:25.571,2188.0,-388.0,-18220.0,1971.01
00:01:25.603,2200.0,-388.0,-18192.0,1944.65
00:01:25.635,2208.0,-376.0,-18444.0,2195.50
00:01:25.667,2224.0,-420.0,-18492.0,2245.99
00:01:25.699,2260.0,-388.0,-18244.0,2003.54
00:01:25.730,2232.0,-392.0,-18224.0,1980.36
00:01:25.762,2308.0,-504.0,-18280.0,2048.02
00:01:25.793,2276.0,-296.0,-18312.0,2071.27
00:01:25.825,2260.0,-340.0,-18304.0,2062.13
00:01:25.857,2208.0,-328.0,-18412.0,2162.82
00:01:25.888,2272.0,-380.0,-18372.0,2131.85
00:01:25.920,2364.0,-508.0,-18300.0,2075.05
00:01:25.953,2272.0,-440.0,-18328.0,2089.53
00:01:25.984,2292.0,-376.0,-18260.0,2023.12
00:01:26.015,2276.0,-420.0,-18328.0,2089.55
00:01:26.048,2296.0,-372.0,-18444.0,2206.08
00:01:26.080,2216.0,-488.0,-18312.0,2068.05
00:01:26.112,2276.0,-384.0,-18248.0,2009.40
00:01:26.144,2284.0,-440.0,-18304.0,2067.20
00:01:26.177,3936.0,-604.0,-17932.0,1984.82
00:01:26.210,2676.0,-348.0,-17968.0,1785.51
00:01:26.241,2168.0,-428.0,-18620.0,2366.67
00:01:26.274,2156.0,-408.0,-18208.0,1955.74
00:01:26.306,2396.0,-356.0,-18364.0,2139.07
00:01:26.338,2316.0,-376.0,-18364.0,2129.29
00:01:26.371,2200.0,-276.0,-18316.0,2065.72
00:01:26.403,2316.0,-296.0,-18252.0,2016.73
00:01:26.434,2196.0,-212.0,-18224.0,1973.06
00:01:26.466,2360.0,-276.0,-18312.0,2081.51
00:01:26.497,2228.0,-288.0,-18248.0,2001.77
00:01:26.530,2244.0,-456.0,-18252.0,2011.08
00:01:26.561,2264.0,-300.0,-18368.0,2125.43
00:01:26.593,2196.0,-344.0,-18396.0,2145.80
00:01:26.626,2268.0,-420.0,-18288.0,2048.88
00:01:26.659,8500.0,-1256.0,-21048.0,6350.24
00:01:26.691,1628.0,-580.0,-18628.0,2324.00
00:01:26.723,2416.0,-244.0,-19244.0,3012.60
00:01:26.756,2236.0,-324.0,-17972.0,1729.46
00:01:26.788,2204.0,-316.0,-18368.0,2118.46
00:01:26.819,2336.0,-396.0,-18376.0,2144.12
00:01:26.852,2324.0,-348.0,-18496.0,2260.68
00:01:26.884,2328.0,-372.0,-18388.0,2154.51
00:01:26.915,2304.0,-396.0,-18340.0,2104.40
00:01:26.947,2240.0,-304.0,-18332.0,2086.85
00:01:26.980,2380.0,-364.0,-18284.0,2057.84
00:01:27.012,2304.0,-500.0,-18100.0,1868.90
00:01:27.043,2260.0,-476.0,-18304.0,2065.14
00:01:27.075,2236.0,-320.0,-18320.0,2074.72
00:01:27.108,2268.0,-412.0,-18596.0,2354.32
00:01:27.140,2252.0,-308.0,-18200.0,1957.38
00:01:27.170,2260.0,-384.0,-18196.0,1955.83
00:01:27.203,1940.0,-316.0,-18528.0,2247.97
00:01:27.235,2108.0,-352.0,-18308.0,2048.32
00:01:27.266,2312.0,-352.0,-18248.0,2013.25
00:01:27.298,2020.0,-528.0,-17880.0,1617.49
00:01:27.329,2284.0,-396.0,-18080.0,1844.00
00:01:27.360,2476.0,-464.0,-18600.0,2385.81
00:01:27.393,2232.0,-388.0,-18076.0,1833.41
00:01:27.424,2184.0,-392.0,-18172.0,1922.97
00:01:27.456,2248.0,-376.0,-18256.0,2013.73
00:01:27.487,2116.0,-444.0,-18288.0,2031.36
00:01:27.519,2308.0,-396.0,-18296.0,2061.25
00:01:27.551,2268.0,-404.0,-18192.0,1953.28
00:01:27.582,2048.0,-472.0,-18532.0,2266.79
00:01:27.614,2264.0,-480.0,-18176.0,1938.75
